kbd_start_task.keys,kbd_start_task.rt,distance,height,win_width,win_height,kbd_wait.keys,kbd_wait.rt,innerWidth,innerHeight,key_resp.keys,key_resp.rt,gazeArray,RandomizePosition.thisRepN,RandomizePosition.thisTrialN,RandomizePosition.thisN,RandomizePosition.thisIndex,RandomizePosition.ran,xpos,ypos,participant,session,date,expName,psychopyVersion,OS,frameRate,key_resp_2.keys,key_resp_2.rt,trials.thisRepN,trials.thisTrialN,trials.thisN,trials.thisIndex,trials.ran
space,1.997845,24,8.2,1440,900,space,10.610615,1414,798,space,85.4499,"[[0.5850000306963921,696,439],[22.649999940767884,742,419],[55.5249999742955,742,419],[83.58999993652105,709,451],[110.24999991059303,709,451],[127.72500002756715,720,394],[152.72999997250736,720,394],[163.8950000051409,720,394],[178.71999996714294,764,382],[205.6549999397248,764,382],[215.50499997101724,764,382],[228.7149999756366,743,425],[254.62500005960464,743,425],[266.5649999398738,743,425],[282.82999992370605,743,396],[309.48000005446374,743,396],[326.88000006601214,741,383],[351.920000044629,741,383],[365.3299999423325,741,383],[379.2699999175966,749,387],[405.80000006593764,749,387],[422.09500004537404,751,422],[448.1750000268221,751,422],[466.5800000075251,743,454],[490.6049999408424,743,454],[500.5899998359382,743,454],[512.8299999050796,729,422],[538.8700000476092,729,422],[547.8999998886138,729,422],[562.7099999692291,943,298],[587.434999877587,943,298],[596.7049999162555,943,298],[612.8000000026077,1014,186],[640.2600000146776,1014,186],[651.8699999433011,1101,155],[673.8050000276417,1101,155],[681.3449999317527,1101,155],[695.4200000036508,1076,191],[717.6149999722838,1076,191],[734.9600000306964,1088,127],[756.6400000359863,1088,127],[764.7899999283254,1088,127],[779.270000057295,1083,104],[802.9999998398125,1083,104],[813.9499998651445,1083,104],[828.7100000306964,1062,110],[851.4049998484552,1062,110],[867.4899998586625,1064,129],[887.6050000544637,1064,129],[896.7450000345707,1064,129],[912.1349998749793,1059,162],[940.0049999821931,1059,162],[952.7399998623878,1040,78],[974.5499999262393,1040,78],[982.4449999723583,1040,78],[995.4049999359995,1101,179],[1017.2399999573827,1101,179],[1035.0299999117851,1083,85],[1058.3549998700619,1083,85],[1065.7150000333786,1083,85],[1078.599999891594,1036,149],[1106.8249999079853,1036,149],[1114.439999917522,1036,149],[1129.2599998414516,1031,124],[1156.25,1031,124],[1164.2700000666082,1031,124],[1178.889999864623,1056,128],[1206.9449999835342,1056,128],[1214.9199999403208,1056,128],[1228.7649998907,1021,128],[1252.9749998357147,1021,128],[1263.7699998449534,1021,128],[1278.7549998611212,1059,159],[1307.194999884814,1059,159],[1313.6449998710304,1059,159],[1328.6899998784065,1049,108],[1350.3099998924881,1049,108],[1367.704999865964,985,107],[1390.9899999853224,985,107],[1401.079999981448,985,107],[1411.904999986291,1032,101],[1438.205000013113,1032,101],[1451.660000020638,1048,141],[1473.3599999453872,1048,141],[1481.7800000309944,1048,141],[1495.8150000311434,1034,150],[1517.1699998900294,1034,150],[1534.9449999630451,1026,111],[1558.9850000105798,1026,111],[1571.4699998497963,1005,128],[1597.3900000099093,1005,128],[1618.4549999888986,1001,128],[1640.1449998375028,1001,128],[1652.8799999505281,940,128],[1674.1450000554323,940,128],[1681.929999962449,940,128],[1695.6650000065565,987,126],[1718.8649999443442,987,126],[1728.8750000298023,987,126],[1745.704999892041,1040,97],[1774.4350000284612,1040,97],[1782.084999838844,1040,97],[1795.3149999957532,1024,140],[1820.0449999421835,1024,140],[1829.884999897331,1024,140],[1845.424999948591,1040,182],[1873.0349999386817,1040,182],[1879.9550000112504,1040,182],[1895.7299999892712,994,144],[1919.6899998933077,994,144],[1935.1249998435378,1091,117],[1955.1099999807775,1091,117],[1968.3149999473244,1047,139]]",0,0,0,3,1,0.3,0.3,jig,001,2021-03-16_17h05.03.329,TestWebGazer,2021.1.2,MacIntel,60.0024001,,,,,,,
,,,,,,,,,,,,"[[0.044999876990914345,1047,139],[22.394999861717224,1047,139],[29.749999986961484,1047,139],[43.744999915361404,1015,178],[70.55999990552664,1015,178],[77.58999988436699,1015,178],[93.34999998100102,1000,158],[115.40999985300004,1000,158],[126.72499986365438,1000,158],[143.39499990455806,1022,156],[172.5699999369681,1022,156],[180.05499988794327,1022,156],[193.3100000023842,1032,146],[215.54999984800816,1032,146],[232.5750000309199,1009,169],[257.6800000388175,1009,169],[269.75999982096255,1021,154],[292.505000019446,1021,154],[310.50499994307756,1007,157],[337.4449999537319,1007,157],[349.48999993503094,1007,196],[369.79499994777143,1007,196],[382.8749998938292,755,125],[405.849999981001,755,125],[412.86999988369644,755,125],[426.91999999806285,552,160],[452.32499996200204,552,160],[466.28499985672534,538,105],[491.1449998617172,538,105],[507.57499993778765,519,106],[530.6049999780953,519,106],[547.2899999003857,536,131],[570.4599998425692,536,131],[582.9900000244379,538,150],[604.8500000033528,538,150],[612.0749998372048,538,150],[627.5899999309331,555,143],[650.8749998174608,555,143],[665.7950000371784,520,173],[687.889999942854,520,173],[699.3999998085201,545,134],[722.4449999630451,545,134],[729.8649998847395,545,134],[743.6649999581277,519,146],[767.4000000115484,519,146],[782.3099999222904,512,154],[805.4400000255555,512,154],[812.7099999692291,512,154],[827.104999916628,485,187],[854.4349998701364,485,187],[861.3950000144541,485,187],[877.1699999924749,472,207],[902.4649998173118,472,207],[911.3999998662621,472,207],[926.414999878034,491,94],[948.534999974072,491,94],[965.3449999168515,546,158],[986.5749999880791,546,158],[994.6249998174608,546,158],[1009.6599999815226,529,173],[1038.3849998470396,529,173],[1050.539999967441,489,190],[1072.019999846816,489,190],[1080.7299998123199,489,190],[1093.3649998623878,486,142],[1115.3049999848008,486,142],[1132.499999832362,505,158],[1155.8999998960644,505,158],[1167.2149999067187,455,152],[1189.669999992475,455,152],[1197.294999845326,455,152],[1209.5649999100715,514,136],[1236.3299999851733,514,136],[1244.3549998570234,514,136],[1259.699999820441,538,190],[1283.534999936819,538,190],[1293.8049999065697,538,190],[1309.6199999563396,559,152],[1338.6399999726564,559,152],[1345.8449998870492,559,152],[1359.5900000073016,540,138],[1381.959999911487,540,138],[1398.9049999509007,556,185],[1420.6399999093264,556,185],[1429.4649998191744,556,185],[1442.3749998677522,583,179],[1467.7450000308454,583,179],[1482.8899998683482,585,177],[1504.4749998487532,585,177],[1517.4600000027567,593,190],[1538.0899999290705,593,190],[1546.1049999576062,593,190],[1560.859999852255,564,233],[1584.874999942258,564,233],[1598.9249998237938,528,215],[1622.8449998889118,528,215],[1634.665000019595,555,184],[1658.2149998284876,555,184],[1673.8299999851733,551,206],[1696.1949998512864,551,206],[1713.7050000019372,533,244],[1737.989999819547,533,244],[1750.0099998433143,545,281],[1771.9900000374764,545,281],[1779.9949999898672,545,281],[1792.9849999491125,561,256],[1814.5049999002367,561,256],[1831.874999916181,547,275],[1854.2799998540431,547,275],[1861.6749998182058,547,275],[1877.24499986507,562,228],[1902.5049998890609,562,228],[1915.6700000166893,570,222],[1938.9899999368936,570,222],[1945.5699999816716,570,222],[1959.654999896884,583,211],[1983.6099999956787,583,211],[1995.1649999711663,583,211]]",0,1,1,1,1,-0.3,0.3,jig,001,2021-03-16_17h05.03.329,TestWebGazer,2021.1.2,MacIntel,60.0024001,,,,,,,
,,,,,,,,,,,,"[[0.045000109821558,583,211],[14.859999995678663,553,226],[41.385000105947256,553,226],[54.179999977350235,539,204],[76.17500005289912,539,204],[89.72500008530915,545,203],[111.1500000115484,545,203],[121.5900001116097,545,203],[135.1450001820922,555,213],[158.5850000847131,555,213],[168.15000004135072,555,213],[180.96500006504357,567,227],[205.80000011250377,567,227],[221.1949999909848,579,229],[244.53500006347895,579,229],[256.2850001268089,569,217],[277.37500006332994,569,217],[288.3500000461936,569,217],[301.87000008299947,584,227],[324.7550001833588,584,227],[340.01000015996397,542,246],[363.9700000640005,542,246],[380.33500011079013,506,418],[403.2750001642853,506,418],[413.91500015743077,506,418],[431.285000173375,540,581],[456.22000005096197,540,581],[466.52500005438924,540,581],[480.5650000926107,524,569],[502.85000004805624,524,569],[514.5650000777096,524,569],[530.8050001040101,514,596],[554.0350000374019,514,596],[569.9899999890476,469,555],[590.495000127703,469,555],[600.3750001545995,469,555],[613.8750000391155,526,632],[639.2300000879914,526,632],[651.0700001381338,526,632],[664.7499999962747,511,579],[690.0700000114739,511,579],[699.9300001189113,511,579],[713.3349999785423,519,591],[737.1600000187755,519,591],[747.6850000675768,519,591],[763.8350001070648,552,591],[787.7550001721829,552,591],[797.6200000848621,552,591],[814.1050001140684,527,634],[840.4400001745671,527,634],[855.5900000501424,482,626],[878.2650001812726,482,626],[892.3700000159442,524,634],[915.9099999815226,524,634],[934.7400001715869,525,639],[958.504999987781,525,639],[966.67500003241,525,639],[980.4850001819432,512,668],[1008.570000063628,512,668],[1017.3450000584126,512,668],[1031.690000090748,519,653],[1056.3850000035018,519,653],[1065.415000077337,519,653],[1081.7299999762326,562,640],[1109.3950001522899,562,640],[1116.6100001428276,562,640],[1130.5750000756234,526,612],[1152.585000032559,526,612],[1170.5549999605864,539,546],[1192.2500000800937,539,546],[1205.4950001183897,480,597],[1226.4000000432134,480,597],[1239.5699999760836,538,568],[1262.3650000896305,538,568],[1278.0200000852346,491,592],[1300.0300000421703,491,592],[1317.9650001693517,482,619],[1341.8199999723583,482,619],[1350.0600000843406,482,619],[1363.7600000947714,493,634],[1386.255000019446,493,634],[1403.3099999651313,507,613],[1423.8850001711398,507,613],[1431.6100000869483,507,613],[1447.185000171885,492,594],[1474.8949999921024,492,594],[1486.879999982193,500,592],[1508.295000065118,500,592],[1521.6300000902265,504,674],[1542.7300001028925,504,674],[1552.1650000009686,504,674],[1564.5900000818074,525,632],[1589.8700000252575,525,632],[1604.140000184998,521,621],[1626.6199999954551,521,621],[1633.400000166148,521,621],[1648.0000000447035,499,685],[1673.3850000891834,499,685],[1683.004999998957,499,685],[1697.2850000020117,504,589],[1720.0200001243502,504,589],[1736.574999988079,530,600],[1758.2900000270456,530,600],[1772.5250001531094,534,606],[1793.2150000706315,534,606],[1801.2749999761581,534,606],[1817.365000024438,519,666],[1841.3750000763685,519,666],[1850.0850000418723,519,666],[1864.005000097677,497,667],[1885.9400001820177,497,667],[1903.0600001569837,527,618],[1924.220000160858,527,618],[1936.974999960512,535,629],[1958.474999992177,535,629],[1972.3350000567734,545,628],[1994.4899999536574,545,628]]",0,2,2,2,1,-0.3,-0.3,jig,001,2021-03-16_17h05.03.329,TestWebGazer,2021.1.2,MacIntel,60.0024001,,,,,,,
,,,,,,,,,,,,"[[0.059999991208314896,545,628],[10.329999960958958,545,628],[27.639999985694885,550,637],[49.24999992363155,550,637],[59.344999957829714,550,637],[73.08500004000962,548,620],[95.50000005401671,548,620],[103.59499999321997,548,620],[119.23499987460673,514,608],[145.9749999921769,514,608],[154.77499994449317,514,608],[168.9549998845905,527,591],[191.11500005237758,527,591],[209.13499989546835,533,572],[232.67499986104667,533,572],[245.91000005602837,509,611],[267.7449998445809,509,611],[284.9099999293685,501,605],[309.81999984942377,501,605],[320.6149998586625,501,605],[335.274999961257,542,617],[357.4349998962134,542,617],[374.32499998249114,740,406],[395.58500004932284,740,406],[403.1950000207871,740,406],[418.92499988898635,779,336],[443.5999998822808,779,336],[460.17999993637204,790,310],[482.06999991089106,790,310],[491.26499984413385,790,310],[506.0199999716133,774,359],[529.0850000455976,774,359],[542.3449999652803,765,434],[565.3049999382347,765,434],[573.2749998569489,765,434],[585.4899999685585,823,396],[612.019999884069,823,396],[621.3149998802692,823,396],[635.1699999067932,795,298],[657.4849998578429,795,298],[675.1800000201911,735,438],[698.5299999359995,735,438],[710.9300000593066,794,562],[732.8349999152124,794,562],[741.2550000008196,794,562],[756.0999998822808,627,515],[778.6600000690669,627,515],[787.4749999027699,627,515],[802.4599999189377,650,550],[826.839999994263,650,550],[843.3850000146776,776,429],[867.5599999260157,776,429],[876.9199999514967,776,429],[893.5950000304729,747,504],[915.6199998687953,747,504],[924.085000064224,747,504],[939.1300000716001,804,430],[961.379999993369,804,430],[970.1699998695403,804,430],[986.4049998577684,746,400],[1012.2950000222772,746,400],[1020.6849998794496,746,400],[1035.5950000230223,784,390],[1058.4249999374151,784,390],[1070.060000056401,784,390],[1085.5499999597669,809,388],[1113.1899999454618,809,388],[1121.3899999856949,809,388],[1135.5599998496473,791,411],[1156.8249999545515,791,411],[1175.2100000157952,791,391],[1197.34499999322,791,391],[1204.9399998504668,791,391],[1218.8649999443442,795,425],[1244.8599999770522,795,425],[1259.5100000035018,782,438],[1281.0450000688434,782,438],[1289.6650000475347,782,438],[1302.299999864772,764,424],[1324.3299999739975,764,424],[1342.6599998492748,793,405],[1366.9050000607967,793,405],[1379.9149999395013,817,409],[1404.8450000118464,817,409],[1422.8399998974055,751,395],[1445.795000065118,751,395],[1453.5499999765307,751,395],[1468.7449999619275,762,395],[1492.7349998615682,762,395],[1509.7449999302626,754,403],[1531.2999999150634,754,403],[1541.844999883324,754,403],[1556.6099998541176,748,402],[1580.5599999148399,748,402],[1587.2700000181794,748,402],[1602.9949998483062,779,377],[1629.6299998648465,779,377],[1644.984999904409,762,382],[1668.5949999373406,762,382],[1685.4099999181926,781,371],[1710.8700000680983,781,371],[1725.3600000403821,764,386],[1747.8600000031292,764,386],[1761.5499999374151,796,360],[1782.1649999823421,796,360],[1792.7500000223517,796,360],[1806.6849999595433,791,372],[1829.810000024736,791,372],[1837.0949998497963,791,372],[1853.2300000078976,791,318],[1878.78999998793,791,318],[1893.3599998708814,755,352],[1914.8500000592321,755,352],[1922.444999916479,755,352],[1935.109999962151,759,341],[1957.8599999658763,759,341],[1974.7150000184774,736,403],[1998.9199999254197,736,403]]",0,3,3,0,1,0,0,jig,001,2021-03-16_17h05.03.329,TestWebGazer,2021.1.2,MacIntel,60.0024001,,,,,,,
,,,,,,,,,,,,"[[0.06500002928078175,736,403],[6.60500000230968,736,403],[19.705000100657344,723,426],[46.959999948740005,723,426],[54.68500009737909,723,426],[69.0399999730289,710,449],[91.13500011153519,710,449],[102.94999997131526,710,449],[119.71500003710389,731,442],[148.32499995827675,731,442],[161.725000012666,774,437],[182.90500016883016,774,437],[193.6350001487881,774,437],[207.29000004939735,798,437],[230.72500014677644,798,437],[243.17000014707446,811,376],[264.0250001568347,811,376],[278.6700001452118,788,350],[301.29000009037554,788,350],[310.89500011876225,788,350],[325.47500007785857,788,418],[349.41500006243587,788,418],[357.43500012904406,788,418],[370.409999974072,777,414],[396.7049999628216,777,414],[405.280000064522,777,414],[420.200000051409,921,675],[446.38000009581447,921,675],[459.8250000271946,928,668],[482.4900000821799,928,668],[489.4900000654161,928,668],[503.44500015489757,929,671],[528.3650001510978,929,671],[542.5950000062585,967,659],[565.3150000143796,967,659],[573.7799999769777,967,659],[585.4150000959635,922,686],[609.2950000893325,922,686],[625.5550000350922,940,700],[646.6700001619756,940,700],[659.7949999850243,922,693],[681.1450000386685,922,693],[689.0500001609325,922,693],[702.6750000659376,933,692],[725.2599999774247,933,692],[742.5900001544505,929,702],[765.4600001405925,929,702],[779.8300001304597,951,693],[873.8550001289696,951,693],[962.3249999713153,942,671],[983.8849999941885,942,671],[993.6750000342727,942,671],[1007.1900000330061,971,649],[1030.470000114292,971,649],[1037.705000024289,971,649],[1052.960000000894,914,617],[1080.2599999587983,914,617],[1092.064999975264,921,633],[1112.2200000099838,921,633],[1125.2000001259148,884,630],[1149.8200001660734,884,630],[1156.4100000541657,884,630],[1169.2850000690669,891,627],[1192.2349999658763,891,627],[1204.8700000159442,891,627],[1219.3500001449138,953,670],[1246.3549999520183,953,670],[1258.4150000475347,900,619],[1279.134999960661,900,619],[1291.4800001308322,895,641],[1313.300000037998,895,641],[1326.9150000996888,904,661],[1348.2399999629706,904,661],[1356.7600001115352,904,661],[1369.5000000298023,904,664],[1390.1649999897927,904,664],[1409.0650000143796,875,734],[1430.6449999567121,875,734],[1439.669999992475,875,734],[1453.2449999824166,939,690],[1476.9399999640882,939,690],[1492.5949999596924,935,634],[1514.3550001084805,935,634],[1521.7800000682473,935,634],[1537.260000128299,949,615],[1560.7450001407415,949,615],[1575.5150001496077,941,614],[1595.4550001770258,941,614],[1604.479999979958,941,614],[1620.1850001234561,955,634],[1642.0800001360476,955,634],[1653.785000089556,955,634],[1670.6149999517947,943,610],[1696.2999999523163,943,610],[1710.0550001487136,932,649],[1731.0099999886006,932,649],[1739.6500001195818,932,649],[1752.6899999938905,950,642],[1774.415000109002,950,642],[1793.525000102818,974,607],[1815.4800001066178,974,607],[1822.840000037104,974,607],[1836.3300000783056,936,615],[1856.8100000265986,936,615],[1875.1600000541657,892,597],[1896.500000031665,892,597],[1909.175000153482,900,627],[1931.8050001747906,900,627],[1944.4750000257045,938,590],[1965.440000174567,938,590],[1972.3849999718368,938,590],[1986.0700001008809,919,608],[2011.1950000282377,919,608]]",0,4,4,4,1,0.3,-0.3,jig,001,2021-03-16_17h05.03.329,TestWebGazer,2021.1.2,MacIntel,60.0024001,,,,,,,
,,,,,,,,,,,,,,,,,,,,jig,001,2021-03-16_17h05.03.329,TestWebGazer,2021.1.2,MacIntel,60.0024001,space,1.916375,0,0,0,0,1
,,,,,,,,,,,,"[[0.0350000336766243,729,323],[29.504999984055758,729,323],[50.28999992646277,729,323],[65.76999998651445,721,374],[87.90499996393919,721,374],[97.94999985024333,721,374],[110.97999988123775,747,323],[134.22999996691942,747,323],[147.54999987781048,760,325],[168.55499986559153,760,325],[177.15499992482364,760,325],[189.87999996170402,761,337],[214.1700000502169,761,337],[229.33500004000962,773,362],[250.74000004678965,773,362],[257.7749998308718,773,362],[273.76999985426664,766,401],[296.97499983012676,766,401],[314.4000000320375,758,342],[335.9649998601526,758,342],[345.56499985046685,758,342],[357.785000000149,764,335],[381.88500003889203,764,335],[399.01999989524484,744,335],[423.3849998563528,744,335],[440.7150000333786,736,372],[483.7249999400228,736,372],[517.4600000027567,736,372],[537.1900000609457,758,361],[564.3599999602884,758,361],[584.2399999964982,758,361],[598.5449999570847,745,390],[621.0449999198318,745,390],[633.4450000431389,709,378],[655.9150000102818,709,378],[671.5199998579919,721,387],[693.6249998398125,721,387],[711.4349999465048,724,426],[733.8199999649078,724,426],[741.8749998323619,724,426],[758.1050000153482,770,371],[784.2249998357147,770,371],[793.1549998465925,770,371],[806.8500000517815,748,320],[830.4049998987466,748,320],[844.3950000219047,736,359],[865.8149999100715,736,359],[874.4949998799711,736,359],[890.4800000600517,770,352],[915.5399999581277,770,352],[925.6700000260025,770,352],[940.764999948442,695,372],[966.0300000105053,695,372],[981.2300000339746,728,334],[1003.4399998839945,728,334],[1016.3199999369681,722,355],[1038.4249999187887,722,355],[1047.0900000073016,722,355],[1061.2449999898672,725,378],[1084.2299999203533,725,378],[1091.5999999269843,725,378],[1108.2899998873472,766,335],[1136.1699998378754,766,335],[1148.2549998909235,744,363],[1169.4650000426918,744,363],[1177.9950000345707,744,363],[1190.0450000539422,720,347],[1212.5500000547618,720,347],[1229.829999851063,703,353],[1251.9600000232458,703,353],[1259.6299999859184,703,353],[1273.659999947995,698,334],[1295.9650000557303,698,334],[1313.594999955967,686,354],[1336.759999860078,686,354],[1344.9099999852479,686,354],[1356.5149998757988,722,344],[1378.87499993667,722,344],[1397.374999942258,705,311],[1419.3149998318404,705,311],[1426.4099998399615,705,311],[1440.2599998284131,749,354],[1461.6199999582022,749,354],[1479.5299998950213,757,320],[1501.9199999514967,757,320],[1509.3449999112636,757,320],[1524.489999981597,735,366],[1549.654999980703,735,366],[1564.2450000159442,736,342],[1586.2300000153482,736,342],[1593.3999998960644,736,342],[1607.3199999518692,704,309],[1632.2049999143928,704,309],[1641.3699998520315,704,309],[1657.050000037998,701,326],[1684.2050000559539,701,326],[1692.1999999321997,701,326],[1708.0299998633564,683,322],[1734.4349999912083,683,322],[1746.5299998875707,700,326],[1768.6900000553578,700,326],[1777.2049999330193,700,326],[1790.254999883473,701,310],[1815.9099998883903,701,310],[1825.114999897778,701,310],[1840.4149999842048,755,356],[1864.0799999702722,755,356],[1879.410000052303,756,336],[1902.0149998832494,756,336],[1913.9449999202043,753,325],[1934.4699999783188,753,325],[1943.3599999174476,753,325],[1956.5649998839945,719,349],[1979.784999974072,719,349],[1998.2499999459833,733,337]]",0,0,0,0,1,0,0,jig,001,2021-03-16_17h05.03.329,TestWebGazer,2021.1.2,MacIntel,60.0024001,,,,,,,
,,,,,,,,,,,,"[[0.0350000336766243,733,337],[21.40500000678003,733,337],[31.98500000871718,733,337],[46.134999953210354,722,336],[69.91499988362193,722,336],[77.30500004254282,722,336],[91.06500004418194,726,342],[113.57499985024333,726,342],[131.40499987639487,719,369],[153.08999991975725,719,369],[165.37000006064773,759,361],[187.94999993406236,759,361],[199.77999990805984,732,328],[220.55500000715256,732,328],[234.11499988287687,714,340],[254.8400000669062,714,340],[263.0199999548495,714,340],[274.83000000938773,747,350],[298.380000051111,747,350],[314.2949999310076,753,344],[338.9449999667704,753,344],[346.5499999001622,753,344],[361.5500000305474,758,363],[385.2099999785423,758,363],[398.8599998410791,771,361],[420.76499992981553,771,361],[433.130000019446,945,165],[455.6549999397248,945,165],[462.0449999347329,945,165],[474.8949999921024,961,125],[498.44999983906746,961,125],[514.3800000660121,969,152],[535.9699998516589,969,152],[548.3049999456853,1009,79],[569.3399999290705,1009,79],[582.4750000610948,1024,98],[604.1299998760223,1024,98],[611.4600000437349,1024,98],[625.0499999150634,1045,93],[650.2199999522418,1045,93],[665.7899999991059,991,143],[687.0349999517202,991,143],[695.4799999948591,991,143],[708.0999999307096,986,118],[731.764999916777,986,118],[747.9199999943376,967,126],[771.4100000448525,967,126],[779.609999852255,967,126],[791.4249999448657,966,117],[817.9999999701977,966,117],[826.6600000206381,966,117],[841.5599998552352,992,70],[862.6149999909103,992,70],[881.7249999847263,1012,88],[902.8600000310689,1012,88],[917.0299998950213,1039,100],[939.2949999310076,1039,100],[951.6900000162423,980,124],[973.2500000391155,980,124],[984.0499998535961,980,124],[999.1699999663979,981,109],[1021.3949999306351,981,109],[1029.3949998449534,981,109],[1041.6699999477714,995,94],[1067.619999870658,995,94],[1076.13499998115,995,94],[1092.3599998932332,1053,132],[1116.5899999905378,1053,132],[1125.9399999398738,1053,132],[1141.8850000482053,990,120],[1164.6650000475347,990,120],[1181.540000019595,1036,108],[1204.9650000408292,1036,108],[1218.6749998945743,1041,146],[1240.8799999393523,1041,146],[1258.2249999977648,1032,140],[1283.3950000349432,1032,140],[1292.854999890551,1032,140],[1309.5199998933822,1009,121],[1336.9249999523163,1009,121],[1345.3549998812377,1009,121],[1359.0100000146776,994,104],[1385.4300000239164,994,104],[1397.4549998529255,1038,80],[1418.8800000119954,1038,80],[1427.350000012666,1038,80],[1440.9600000362843,1015,139],[1461.8999999947846,1015,139],[1479.2349999770522,1026,86],[1501.9549999851733,1026,86],[1514.5349998492748,1020,96],[1538.440000033006,1020,96],[1545.7150000147521,1020,96],[1558.87999990955,991,126],[1582.8400000464171,991,126],[1596.974999876693,980,120],[1617.7099999040365,980,120],[1625.7650000043213,980,120],[1641.5450000204146,994,122],[1665.2999999932945,994,122],[1675.969999982044,994,122],[1692.6899999380112,1010,155],[1715.8800000324845,1010,155],[1731.8100000265986,979,129],[1753.3149998635054,979,129],[1765.129999956116,989,92],[1787.0650000404567,989,92],[1798.960000043735,991,110],[1822.3649999126792,991,110],[1831.9850000552833,991,110],[1846.0849998518825,1008,103],[1870.9599999710917,1008,103],[1878.3849999308586,1008,103],[1891.5399999823421,1001,125],[1914.094999898225,1001,125],[1932.0300000254065,1014,159],[1953.084999928251,1014,159],[1961.5650000050664,1014,159],[1974.930000025779,1021,126],[1996.5549998451024,1021,126]]",0,1,1,3,1,0.3,0.3,jig,001,2021-03-16_17h05.03.329,TestWebGazer,2021.1.2,MacIntel,60.0024001,,,,,,,
,,,,,,,,,,,,"[[0.0350000336766243,1021,126],[16.259999945759773,1012,110],[37.83000004477799,1012,110],[46.28000012598932,1012,110],[62.510000076144934,1003,152],[91.46000002510846,1003,152],[107.27500007487833,978,176],[152.62000006623566,978,176],[188.09000006876886,1010,157],[216.1199999973178,1010,157],[234.62000000290573,1010,157],[249.92000008933246,977,159],[274.0050000138581,977,159],[288.07000000961125,981,109],[313.4049999061972,981,109],[328.9399999193847,982,99],[355.31000001356006,982,99],[368.84999996982515,979,185],[390.2749998960644,979,185],[404.79500009678304,951,476],[427.1150000859052,951,476],[439.1699999105185,951,476],[451.5599999576807,931,498],[474.2850000038743,931,498],[481.3850000500679,931,498],[493.9600001089275,960,483],[517.1600000467151,960,483],[535.5299999937415,942,527],[557.7650000341237,942,527],[565.015000058338,942,527],[578.6349999252707,891,543],[603.8649999536574,891,543],[614.2849999014288,891,543],[628.2150000333786,921,515],[654.25999998115,921,515],[662.8650000784546,921,515],[677.6799999643117,916,524],[706.7700000479817,916,524],[713.8849999755621,916,524],[728.730000089854,937,520],[753.7199999205768,937,520],[768.0649999529123,937,535],[789.1299999319017,937,535],[797.6500000804663,937,535],[812.3000001069158,916,548],[838.5149999521673,916,548],[846.2849999777973,916,548],[860.9700000379235,919,596],[884.5500000752509,919,596],[896.9099998939782,919,596],[911.545000039041,895,581],[938.8900001067668,895,581],[945.7749999128282,895,581],[961.8999999947846,870,614],[988.9599999878556,870,614],[996.6899999417365,870,614],[1012.4049999285489,867,556],[1039.494999917224,867,556],[1051.7899999395013,839,532],[1073.4800000209361,839,532],[1087.8449999727309,879,610],[1108.8199999649078,879,610],[1124.1399999707937,882,597],[1147.289999993518,882,597],[1165.8650001045316,889,560],[1189.7150001022965,889,560],[1201.4250000938773,872,574],[1223.0950000230223,872,574],[1230.2200000267476,872,574],[1243.9800000283867,866,539],[1265.8999999985099,866,539],[1282.0349999237806,835,589],[1307.0499999448657,835,589],[1314.3249999266118,835,589],[1327.1850000601262,879,564],[1349.3600001093,879,564],[1367.7499999757856,931,561],[1389.530000044033,931,561],[1401.8049999140203,919,512],[1423.2600000686944,919,512],[1431.8800000473857,919,512],[1444.4999999832362,865,507],[1467.6350001245737,865,507],[1484.4400000292808,948,521],[1504.8249999526888,948,521],[1518.7299998942763,942,484],[1540.7549999654293,942,484],[1548.424999928102,942,484],[1561.4599999971688,909,489],[1587.61000004597,909,489],[1596.455000108108,909,489],[1611.9299998972565,915,517],[1639.7949999663979,915,517],[1676.8499999307096,950,551],[1722.234999993816,950,551],[1740.565000101924,857,575],[1765.5450000893325,857,575],[1782.219999935478,865,586],[1805.214999942109,865,586],[1812.8349999897182,865,586],[1827.989999903366,910,526],[1855.0350000150502,910,526],[1867.7799999713898,904,526],[1889.0949999913573,904,526],[1896.8299999833107,904,526],[1911.6050000302494,963,568],[1940.9050000831485,963,568],[1954.6850000042468,944,607],[1976.835000095889,944,607],[1986.6500000935048,944,607],[2002.600000007078,919,595]]",0,2,2,4,1,0.3,-0.3,jig,001,2021-03-16_17h05.03.329,TestWebGazer,2021.1.2,MacIntel,60.0024001,,,,,,,
,,,,,,,,,,,,"[[0.04000007174909115,919,595],[22.224999964237213,919,595],[30.53000010550022,919,595],[44.920000014826655,942,524],[68.08499991893768,942,524],[83.46000011079013,936,568],[105.9499999973923,936,568],[112.84500011242926,936,568],[125.26999996043742,925,574],[152.07500010728836,925,574],[159.30499997921288,925,574],[176.02499993517995,954,607],[199.93000011891127,954,607],[214.88500013947487,939,593],[238.70000010356307,939,593],[252.13999999687076,953,571],[273.7900000065565,953,571],[284.165000077337,953,571],[297.55000001750886,969,564],[320.15500008128583,969,564],[328.30499997362494,969,564],[341.4900000207126,967,586],[362.97000013291836,967,586],[381.08500000089407,705,361],[404.75500002503395,705,361],[411.79000004194677,705,361],[425.43000006116927,509,194],[449.9600001145154,509,194],[459.084999980405,509,194],[474.7450000140816,494,131],[500.2850000746548,494,131],[510.76500001363456,494,131],[524.8199999332428,490,124],[550.7350000552833,490,124],[564.65999991633,470,148],[586.7600000929087,470,148],[593.58000010252,470,148],[607.5500000733882,431,161],[629.6900000888854,431,161],[645.2649999409914,509,129],[666.9850000180304,509,129],[675.6550001446158,509,129],[690.8899999689311,452,138],[716.454999987036,452,138],[732.1399999782443,467,192],[754.5499999541789,467,192],[761.7949999403208,467,192],[775.4049999639392,513,233],[797.7050000336021,513,233],[808.5000000428408,513,233],[824.9649999197572,486,264],[851.2349999509752,486,264],[864.6400000434369,502,231],[886.5799999330193,502,231],[893.8450000714511,502,231],[907.7950001228601,486,199],[930.0400000065565,486,199],[947.0850001089275,493,132],[967.6300000865012,493,132],[975.3700001165271,493,132],[991.3650001399219,488,168],[1019.205000018701,488,168],[1027.2699999623,488,168],[1041.5550000034273,475,143],[1065.8100000582635,475,143],[1075.8450001012534,475,143],[1091.50500013493,483,205],[1117.5250001251698,483,205],[1126.9700000993907,483,205],[1140.8700000029057,504,170],[1163.895000005141,504,170],[1181.4399999566376,532,141],[1207.4450000654906,532,141],[1224.0850001107901,548,167],[1248.4550001099706,548,167],[1258.8949999772012,548,167],[1274.9900000635535,510,193],[1298.560000024736,510,193],[1309.950000140816,510,193],[1325.6300000939518,461,189],[1351.6800000797957,461,189],[1366.3250000681728,492,218],[1387.4150000046939,492,218],[1395.7299999892712,492,218],[1408.2850001286715,476,185],[1429.950000019744,476,185],[1447.7049999404699,471,186],[1469.150000018999,471,186],[1476.8850000109524,471,186],[1492.2150000929832,510,212],[1518.6199999880046,510,212],[1531.0450000688434,505,198],[1552.4649999570101,505,198],[1564.890000037849,499,202],[1585.7049999758601,499,202],[1594.1350001376122,499,202],[1608.005000045523,504,190],[1630.074999993667,504,190],[1647.5700000301003,511,209],[1671.6350000351667,511,209],[1678.7849999964237,511,209],[1692.5399999599904,499,194],[1716.8300000485033,499,194],[1726.3599999714643,499,194],[1741.5000000037253,492,174],[1767.8400001022965,492,174],[1775.5849999375641,492,174],[1791.579999960959,507,203],[1818.5400001239032,507,203],[1826.145000057295,507,203],[1841.5300000924617,519,195],[1864.8650001268834,519,195],[1880.6700001005083,516,195],[1901.2450000736862,516,195],[1910.1100000552833,516,195],[1925.1749999821186,556,179],[1953.0700000468642,556,179],[1960.8700000680983,556,179],[1974.7150000184774,513,191],[1998.6449999269098,513,191]]",0,3,3,1,1,-0.3,0.3,jig,001,2021-03-16_17h05.03.329,TestWebGazer,2021.1.2,MacIntel,60.0024001,,,,,,,
,,,,,,,,,,,,"[[0.0350000336766243,513,191],[16.564999939873815,539,208],[48.53000002913177,539,208],[63.095000106841326,496,177],[86.3149999640882,496,177],[93.85500010102987,496,177],[108.84499992243946,503,161],[133.24499991722405,503,161],[146.87999989837408,526,152],[168.36000001057982,526,152],[181.49000010453165,481,141],[204.96500004082918,481,141],[216.96000010706484,477,137],[238.01500000990927,477,137],[246.62499991245568,477,137],[259.1200000606477,483,138],[283.714999910444,483,138],[293.7400001101196,483,138],[308.4899999666959,462,145],[330.4850000422448,462,145],[348.74500008299947,487,364],[372.084999922663,487,364],[380.5549999233335,487,364],[393.6950000934303,479,453],[417.2700000926852,479,453],[431.91000004298985,500,525],[452.67000002786517,500,525],[460.9950000885874,500,525],[475.64500011503696,512,515],[497.75000009685755,512,515],[515.7500000204891,513,515],[540.1049999054521,513,515],[552.4599999189377,532,538],[575.1300000119954,532,538],[592.2050001099706,518,600],[614.1600001137704,518,600],[631.4199999906123,501,608],[653.7649999372661,501,608],[666.5149999316782,474,591],[686.930000083521,474,591],[695.6549999304116,474,591],[709.5900001004338,490,629],[736.4950000774115,490,629],[745.1500000897795,490,629],[758.9450001250952,464,589],[782.6300000306219,464,589],[798.2799999881536,482,544],[820.8149999845773,482,544],[827.2100000176579,482,544],[842.3250000923872,474,545],[865.4799999203533,474,545],[881.9649999495596,484,511],[904.0000000968575,484,511],[912.2049999423325,484,511],[925.6100000347942,496,535],[951.6499999444932,496,535],[966.7750000953674,514,560],[987.4400000553578,514,560],[995.630000019446,514,560],[1010.0100000854582,495,581],[1035.2549999952316,495,581],[1048.380000051111,516,616],[1071.9300000928342,516,616],[1084.4449999276549,475,551],[1107.8900001011789,475,551],[1116.9549999758601,475,551],[1132.0849999319762,472,548],[1153.0949999578297,472,548],[1162.1600000653416,472,548],[1175.5699999630451,466,578],[1198.2450000941753,466,578],[1215.2899999637157,485,604],[1237.3699999880046,485,604],[1250.3849999047816,483,618],[1272.7500000037253,483,618],[1285.6250000186265,471,572],[1306.71999999322,471,572],[1317.3050000332296,471,572],[1332.9849999863654,487,572],[1354.594999924302,487,572],[1361.849999986589,487,572],[1375.6699999794364,451,579],[1398.9049999509007,451,579],[1414.9750000797212,447,617],[1438.4600000921637,447,617],[1445.6750000827014,447,617],[1460.200000088662,411,642],[1483.8700001128018,411,642],[1498.7000001128763,434,639],[1519.2599999718368,434,639],[1527.070000069216,434,639],[1542.420000070706,464,580],[1567.090000025928,464,580],[1583.159999921918,435,579],[1605.9099999256432,435,579],[1614.3499999307096,435,579],[1629.465000005439,478,595],[1652.4799999315292,478,595],[1660.2350000757724,478,595],[1675.74999993667,443,564],[1699.6150000486523,443,564],[1716.5250000543892,479,609],[1738.0450000055134,479,609],[1751.4400000218302,462,612],[1773.090000031516,462,612],[1780.5600001011044,462,612],[1792.9849999491125,441,600],[1817.9099999833852,441,600],[1827.1749999839813,441,600],[1842.2799999825656,417,585],[1865.1600000448525,417,585],[1881.620000116527,431,589],[1902.9500000178814,431,589],[1915.6450000591576,444,605],[1937.7600001171231,444,605],[1950.9000000543892,457,605],[1973.8549999892712,457,605],[1983.795000007376,457,605],[2000.484999967739,475,605]]",0,4,4,2,1,-0.3,-0.3,jig,001,2021-03-16_17h05.03.329,TestWebGazer,2021.1.2,MacIntel,60.0024001,,,,,,,
,,,,,,,,,,,,,,,,,,,,jig,001,2021-03-16_17h05.03.329,TestWebGazer,2021.1.2,MacIntel,60.0024001,space,1.76196,1,0,1,0,1
,,,,,,,,,,,,"[[0.02500019036233425,705,400],[12.4400001950562,707,418],[34.53500010073185,707,418],[43.295000214129686,707,418],[55.42000010609627,697,379],[79.12500016391277,697,379],[94.9950001668185,693,420],[115.81500014290214,693,420],[129.6700001694262,659,423],[150.13000019825995,659,423],[157.9400000628084,659,423],[172.7000002283603,680,379],[197.09500018507242,680,379],[211.3050001207739,673,368],[232.77000011876225,673,368],[241.43500020727515,673,368],[255.86500018835068,668,323],[282.36500010825694,668,323],[290.3000002261251,668,323],[305.2300000563264,661,350],[331.9850000552833,661,350],[345.75500013306737,683,374],[367.2700000461191,683,374],[379.72500012256205,597,481],[401.19500015862286,597,481],[412.7150001004338,384,599],[432.52000003121793,384,599],[445.62500016763806,442,625],[466.5300000924617,442,625],[479.63000019080937,403,581],[500.94000017270446,403,581],[508.11500009149313,403,581],[522.0150002278388,405,573],[543.6800001189113,405,573],[555.5350000504404,405,573],[572.1400000620633,388,643],[599.1650000214577,388,643],[606.9700000807643,388,643],[622.3950001876801,391,652],[647.1300001721829,391,652],[662.0750001166016,394,644],[684.8600001540035,394,644],[692.0400001108646,394,644],[704.765000147745,387,639],[727.6200000196695,387,639],[744.670000160113,410,619],[765.4500000644475,410,619],[778.5450001247227,429,624],[799.2050000466406,429,624],[807.6650002039969,429,624],[823.2250001747161,454,672],[850.1700002234429,454,672],[857.4000000953674,454,672],[872.4300002213567,458,655],[896.9100001268089,458,655],[911.9200001005083,458,691],[932.9000001307577,458,691],[946.6850000899285,442,668],[969.9550000950694,442,668],[981.4400000032037,428,635],[1001.9500001799315,428,635],[1014.5600000396371,410,621],[1035.4700000025332,410,621],[1042.9600002244115,410,621],[1055.8050000108778,412,640],[1082.9600000288337,412,640],[1090.1700002141297,412,640],[1104.835000121966,474,661],[1129.2350001167506,474,661],[1140.2200001757592,474,661],[1155.4800001904368,454,683],[1178.275000071153,454,683],[1190.8950000070035,454,683],[1205.2550001535565,380,654],[1230.890000006184,380,654],[1239.8300000932068,380,654],[1255.88500010781,422,659],[1283.2750000525266,422,659],[1294.9300000909716,448,689],[1316.175000043586,448,689],[1329.3600000906736,467,696],[1351.4050000812858,467,696],[1364.2250001430511,494,698],[1386.6700001526624,494,698],[1402.6250001043081,478,689],[1426.1650000698864,478,689],[1444.975000107661,418,663],[1466.9250000733882,418,663],[1479.8100001644343,448,682],[1500.8700001053512,448,682],[1508.8400000240654,448,682],[1521.9050000887364,435,738],[1544.7750000748783,435,738],[1556.1750000342727,435,738],[1571.8100001104176,435,668],[1598.1350000947714,435,668],[1612.6000001095235,396,711],[1633.6850000079721,396,711],[1641.6250001639128,396,711],[1656.16500005126,400,719],[1682.1150002069771,400,719],[1695.4700001515448,440,706],[1719.065000070259,440,706],[1726.43500007689,440,706],[1738.5800001211464,427,665],[1764.5400001201779,427,665],[1778.745000017807,402,713],[1801.505000097677,402,713],[1810.4700001422316,402,713],[1822.4650002084672,398,727],[1849.2600000463426,398,727],[1862.6200000289828,400,658],[1884.3200001865625,400,658],[1896.5350000653416,441,676],[1918.800000101328,441,676],[1927.390000084415,441,676],[1942.3250001855195,424,710],[1965.2900001965463,424,710],[1973.7150000873953,424,710],[1988.6750001460314,424,692]]",0,0,0,2,1,-0.3,-0.3,jig,001,2021-03-16_17h05.03.329,TestWebGazer,2021.1.2,MacIntel,60.0024001,,,,,,,
,,,,,,,,,,,,"[[0.049999915063381195,424,692],[22.75999984703958,424,692],[40.38999998010695,457,650],[62.49499996192753,457,650],[70.74499991722405,457,650],[83.32999981939793,447,627],[108.13999990932643,447,627],[118.67499980144203,447,627],[132.73499999195337,438,636],[153.49999978207052,438,636],[171.7349998652935,443,626],[195.32499997876585,443,626],[207.58999977260828,446,666],[229.6349999960512,446,666],[242.67999990843236,456,696],[264.1699998639524,456,696],[274.5499999728054,456,696],[290.10499990545213,435,671],[312.449999852106,435,671],[319.70499991439283,435,671],[332.6999999117106,472,667],[354.47499994188547,472,667],[371.3899999856949,443,706],[392.5949998665601,443,706],[400.39499988779426,443,706],[416.0999997984618,473,639],[441.4349999278784,473,639],[455.9299999382347,633,559],[478.82999991998076,633,559],[490.97999976947904,669,396],[511.29499985836446,669,396],[519.059999845922,669,396],[532.6999998651445,694,363],[554.594999877736,694,363],[571.4499999303371,737,377],[592.5699998624623,737,377],[601.9899998791516,737,377],[616.124999942258,762,339],[639.7599999327213,762,339],[649.7849998995662,762,339],[666.0999997984618,738,362],[687.889999942854,738,362],[699.5349999051541,738,362],[715.6499999109656,730,346],[741.4949999656528,730,346],[756.5999999642372,755,331],[778.9299997966737,755,331],[791.5349998511374,746,323],[812.7899998798966,746,323],[825.6199997849762,736,357],[846.7049999162555,736,357],[854.5099999755621,736,357],[866.2999998778105,725,328],[889.4249999430031,725,328],[905.2599999122322,733,353],[926.3549998868257,733,353],[933.8399998378009,733,353],[949.8549997806549,737,322],[974.5049998164177,737,322],[988.7249998282641,744,357],[1009.8299998790026,744,357],[1022.5099998060614,731,352],[1043.349999934435,731,352],[1061.154999770224,731,453],[1100.4949999041855,731,453],[1128.1349998898804,843,653],[1154.4099999591708,843,653],[1178.7849999964237,701,450],[1201.7699999269098,701,450],[1216.3699998054653,759,550],[1243.0149998981506,759,550],[1250.8899997919798,759,550],[1266.0799999721348,722,488],[1291.2049998994917,722,488],[1300.004999851808,722,488],[1315.409999806434,659,401],[1339.0999999828637,659,401],[1350.5699997767806,659,401],[1366.419999860227,665,425],[1390.3199997730553,665,425],[1400.7099999580532,665,425],[1416.969999903813,685,424],[1442.6899999380112,685,424],[1453.1649998389184,685,424],[1466.0799999255687,688,406],[1489.304999820888,688,406],[1498.7099999561906,688,406],[1516.1799998022616,661,363],[1541.4049997925758,661,363],[1552.1349997725338,661,363],[1566.3699998985976,664,381],[1589.6299998275936,664,381],[1605.5399999022484,653,384],[1631.8999999202788,653,384],[1648.744999896735,683,366],[1675.5049999337643,683,366],[1686.4549999590963,683,366],[1699.714999878779,676,392],[1729.9399999901652,676,392],[1738.9899999834597,676,392],[1753.6949999630451,684,365],[1777.1099999081343,684,365],[1791.4499999023974,664,420],[1814.1999999061227,664,420],[1825.9549997746944,670,434],[1846.5249999426305,670,434],[1857.239999808371,670,434],[1870.084999827668,703,418],[1892.9399999324232,703,418],[1901.4499997720122,703,418],[1915.5549998395145,690,450],[1940.1899999938905,690,450],[1950.8799999020994,690,450],[1966.149999992922,721,433],[1990.894999820739,721,433]]",0,1,1,0,1,0,0,jig,001,2021-03-16_17h05.03.329,TestWebGazer,2021.1.2,MacIntel,60.0024001,,,,,,,
,,,,,,,,,,,,"[[0.04000007174909115,721,433],[14.58499999716878,706,425],[35.73499992489815,706,425],[49.45000004954636,704,412],[71.43500004895031,704,412],[79.36000009067357,704,412],[91.28500008955598,736,390],[117.40999994799495,736,390],[131.095000077039,695,388],[152.20999997109175,695,388],[159.89000000990927,695,388],[174.86999998800457,698,382],[197.1549999434501,698,382],[208.8450000155717,698,382],[224.91000010631979,680,384],[251.36499991640449,680,384],[259.980000089854,680,384],[275.72500007227063,666,408],[302.79999994672835,666,408],[311.0400000587106,666,408],[325.6550000514835,669,376],[350.52999993786216,669,376],[359.5499999355525,669,376],[374.28499991074204,680,375],[398.6299999523908,680,375],[409.8600000143051,680,375],[425.2500000875443,535,292],[449.8499999754131,535,292],[460.02000011503696,535,292],[474.6799999848008,523,225],[498.98999999277294,523,225],[509.83499991707504,523,225],[524.4700000621378,514,203],[549.9899999704212,514,203],[558.9499999769032,514,203],[574.4900000281632,433,169],[598.8799999468029,433,169],[609.3800000380725,433,169],[624.1349999327213,486,204],[648.5000001266599,486,204],[664.1150000505149,483,221],[685.0499999709427,483,221],[694.1450000740588,483,221],[708.3050000946969,482,169],[731.0299999080598,482,169],[743.7150001060218,482,169],[758.8949999772012,492,188],[782.3000000789762,492,188],[793.0850000120699,492,188],[808.0949999857694,493,165],[830.2299999631941,493,165],[847.6599999703467,491,147],[869.4849999155849,491,147],[879.454999929294,491,147],[891.245000064373,516,241],[914.7799999918789,516,241],[926.1950000654906,516,241],[940.8950000070035,530,188],[966.9099999591708,530,188],[987.4549999367446,488,196],[1012.7650001086295,488,196],[1031.3399999868125,503,180],[1051.549999974668,503,180],[1059.709999943152,503,180],[1074.6899999212474,533,162],[1097.0449999440461,533,162],[1107.4000000953674,533,162],[1124.254999915138,477,223],[1151.0250000283122,477,223],[1160.0049999542534,477,223],[1174.6050000656396,514,212],[1197.690000059083,514,212],[1214.8100000340492,512,206],[1237.1600000187755,512,206],[1246.250000083819,512,206],[1258.8299999479204,543,227],[1283.3100000862032,543,227],[1296.9549999106675,481,208],[1317.7750001195818,481,208],[1326.009999960661,481,208],[1341.3500001188368,469,193],[1364.3050000537187,469,193],[1381.7400000989437,550,209],[1403.7250000983477,550,209],[1411.9850001297891,550,209],[1424.8399999924004,544,207],[1451.2650000397116,544,207],[1460.5700001120567,544,207],[1475.0050001312047,542,215],[1498.4750000294298,542,215],[1509.665000019595,542,215],[1524.6900001075119,524,202],[1549.2150001227856,524,202],[1564.9699999485165,533,211],[1586.8500000797212,533,211],[1595.90999991633,533,211],[1608.2399999722838,502,213],[1631.190000101924,502,213],[1647.8299999143928,500,206],[1669.5650001056492,500,206],[1681.6600000020117,504,197],[1702.104999916628,504,197],[1714.990000007674,501,224],[1736.9500000495464,501,224],[1749.0250000264496,524,229],[1770.9399999585003,524,229],[1784.7949999850243,498,231],[1806.1049999669194,498,231],[1820.8049999084324,495,232],[1843.2400000747293,495,232],[1859.5750001259148,506,207],[1884.5250001177192,506,207],[1898.005000082776,511,207],[1918.5200000647455,511,207],[1926.8150001298636,511,207],[1942.6850001327693,524,220],[1969.5699999574572,524,220],[1978.4750000108033,524,220],[1992.0799999963492,521,207]]",0,2,2,1,1,-0.3,0.3,jig,001,2021-03-16_17h05.03.329,TestWebGazer,2021.1.2,MacIntel,60.0024001,,,,,,,
,,,,,,,,,,,,"[[0.045000109821558,521,207],[25.11500008404255,521,207],[38.425000151619315,501,237],[59.080000035464764,501,237],[71.34500006213784,513,210],[92.3099999781698,513,210],[104.82500004582107,490,181],[125.31000003218651,490,181],[139.11999994888902,470,208],[162.02000016346574,470,208],[168.62999997101724,470,208],[183.1549999769777,511,219],[205.53000015206635,511,219],[216.58500004559755,511,219],[233.6800000630319,515,217],[258.1400000490248,515,217],[267.16000004671514,515,217],[282.1299999486655,513,208],[304.8050000797957,513,208],[317.06000003032386,513,208],[332.0000001695007,526,198],[357.6249999459833,526,198],[371.68500013649464,596,172],[392.69500016234815,596,172],[405.4550000000745,952,189],[426.2350001372397,952,189],[434.1150000691414,952,189],[449.93999996222556,1019,208],[474.8250001575798,1019,208],[483.63000014796853,1019,208],[499.25000010989606,1010,202],[526.3549999799579,1010,202],[534.334999974817,1010,202],[548.8750000949949,1042,198],[571.2800000328571,1042,198],[588.2800000254065,1061,209],[610.8049999456853,1061,209],[623.4900001436472,1034,193],[644.9700000230223,1034,193],[657.7500000130385,1021,139],[679.4950000476092,1021,139],[690.1599999982864,1021,139],[704.7000001184642,989,157],[725.9649999905378,989,157],[733.974999981001,989,157],[748.5800001304597,1030,211],[771.7450000345707,1030,211],[794.1000000573695,1029,178],[831.0150001198053,1029,178],[859.0349999722093,972,136],[884.3700001016259,972,136],[904.2050000280142,972,136],[915.3400000650436,991,173],[938.6599999852479,991,173],[953.1199999619275,1037,144],[976.1650001164526,1037,144],[989.9999999906868,1015,171],[1013.1900000851601,1015,171],[1026.9150000531226,1007,140],[1052.1050000097603,1007,140],[1072.5500001572073,990,167],[1092.3099999781698,990,167],[1105.489999987185,1003,169],[1125.8650000672787,1003,169],[1133.9350000489503,1003,169],[1149.280000012368,1002,143],[1171.8600001186132,1002,143],[1183.0100000370294,1002,143],[1198.6849999520928,1010,162],[1223.3150000683963,1010,162],[1237.9900000523776,1014,176],[1257.6500000432134,1014,176],[1271.9250000081956,985,159],[1292.905000038445,985,159],[1305.3300001192838,997,217],[1326.24000008218,997,217],[1333.8999999687076,997,217],[1348.7850001547486,998,208],[1372.4450001027435,998,208],[1388.204999966547,985,177],[1410.490000154823,985,177],[1425.0900000333786,999,189],[1448.545000050217,999,189],[1464.7999999579042,981,212],[1485.4749999940395,981,212],[1502.3950000759214,993,226],[1525.4049999639392,993,226],[1534.040000056848,993,226],[1548.6300000920892,990,226],[1572.785000083968,990,226],[1588.8900000136346,1008,244],[1610.0149999838322,1008,244],[1618.0150001309812,1008,244],[1633.0800000578165,986,262],[1658.0900000408292,986,262],[1671.3600000366569,993,250],[1692.2349999658763,993,250],[1700.1100000925362,993,250],[1715.4600000940263,1018,147],[1739.7400001063943,1018,147],[1754.990000044927,966,149],[1775.3800000064075,966,149],[1784.1499999631196,966,149],[1799.295000033453,988,145],[1823.1800000648946,988,145],[1832.4850001372397,988,145],[1849.3550000712276,964,168],[1878.3450000919402,964,168],[1894.289999967441,974,171],[1917.3550000414252,974,171],[1935.3600000031292,971,164],[1956.9050001446158,971,164],[1965.6950000207871,971,164],[1981.984999962151,999,161],[2005.8800000697374,999,161]]",0,3,3,3,1,0.3,0.3,jig,001,2021-03-16_17h05.03.329,TestWebGazer,2021.1.2,MacIntel,60.0024001,,,,,,,
,,,,,,,,,,,,"[[0.0350000336766243,999,161],[10.89000003412366,999,161],[26.585000101476908,985,163],[52.045000018551946,985,163],[65.39000011980534,981,171],[85.97999997437,981,171],[94.98500009067357,981,171],[109.34500000439584,973,158],[137.48500007204711,973,158],[150.62500000931323,1027,101],[170.99000001326203,1027,101],[179.02499996125698,1027,101],[192.37500010058284,989,165],[217.04500005580485,989,165],[231.66000004857779,1003,189],[252.4850000627339,1003,189],[265.9799999091774,999,180],[285.7850000727922,999,180],[298.8350000232458,1013,173],[319.39500011503696,1013,173],[327.82000000588596,1013,173],[342.5449999049306,986,163],[365.92000001110137,986,163],[376.63500010967255,986,163],[393.55999999679625,920,512],[416.5000000502914,920,512],[426.50000005960464,920,512],[442.50000012107193,930,551],[465.5750000383705,930,551],[478.40999998152256,930,551],[493.13500011339784,894,554],[517.9900000803173,894,554],[531.2950001098216,931,649],[551.2850000523031,931,649],[559.8250001203269,931,649],[575.3150000236928,916,665],[599.9499999452382,916,665],[611.4600000437349,916,665],[625.2150000073016,926,597],[649.6250000782311,926,597],[665.0650000665337,910,666],[687.4850001186132,910,666],[695.6450000870973,910,666],[709.1099999379367,914,576],[731.5050000324845,914,576],[748.589999973774,921,609],[769.8349999263883,921,609],[778.249999973923,921,609],[792.4049999564886,890,583],[815.6900000758469,890,583],[826.6000000294298,890,583],[842.5149999093264,906,555],[865.5850000213832,906,555],[877.4049999192357,906,555],[892.5550000276417,878,582],[917.0750000048429,878,582],[931.2849999405444,878,545],[951.3799999840558,878,545],[965.0250000413507,897,586],[987.4450000934303,897,586],[999.5850000996143,901,566],[1019.4500000216067,901,566],[1028.2550000119954,901,566],[1041.7299999389797,915,616],[1064.2750000115484,915,616],[1080.904999980703,897,653],[1100.7850000169128,897,653],[1115.6649999320507,847,636],[1138.329999987036,847,636],[1150.6550000049174,902,625],[1173.190000001341,902,625],[1183.6449999827892,902,625],[1199.2150000296533,913,612],[1220.919999992475,913,612],[1228.6000000312924,913,612],[1242.2500001266599,939,567],[1264.7049999795854,939,567],[1280.6899999268353,893,604],[1300.5949999205768,893,604],[1309.9450001027435,893,604],[1325.2799999900162,918,581],[1348.8900000229478,918,581],[1365.4100000858307,842,571],[1386.3000001292676,842,571],[1394.2599999718368,842,571],[1409.9200000055134,876,589],[1433.140000095591,876,589],[1443.3250001166016,876,589],[1459.885000018403,880,605],[1484.4200001098216,880,605],[1499.430000083521,870,606],[1519.0300000831485,870,606],[1532.6100001111627,876,564],[1554.9900000914931,876,564],[1561.7299999576062,876,564],[1575.0100000295788,838,569],[1597.319999942556,838,569],[1614.8000000976026,873,586],[1636.0899999272078,873,586],[1648.2100000139326,875,576],[1669.5099999196827,875,576],[1678.234999999404,875,576],[1692.4250000156462,921,632],[1718.044999986887,921,632],[1726.9250000827014,921,632],[1743.2850000914186,921,606],[1767.1600000467151,921,606],[1781.5749999135733,905,603],[1803.5250001121312,905,603],[1816.3149999454618,899,583],[1838.2049999199808,899,583],[1850.8099999744445,891,639],[1873.1350000016391,891,639],[1886.360000120476,891,636],[1912.9649999085814,891,636],[1926.340000005439,891,636],[1942.490000044927,875,718],[1963.7450000736862,875,718],[1981.0099999886006,810,682],[2006.2299999408424,810,682]]",0,4,4,4,1,0.3,-0.3,jig,001,2021-03-16_17h05.03.329,TestWebGazer,2021.1.2,MacIntel,60.0024001,,,,,,,
,,,,,,,,,,,,,,,,,,,,jig,001,2021-03-16_17h05.03.329,TestWebGazer,2021.1.2,MacIntel,60.0024001,space,1.07556,2,0,2,0,1
,,,,,,,,,,,,"[[0.029999995604157448,735,380],[13.190000085160136,746,375],[36.13500017672777,746,375],[44.119999976828694,746,375],[59.305000118911266,722,408],[84.44000012241304,722,408],[94.70000001601875,722,408],[108.93500014208257,733,380],[132.5600000564009,733,380],[144.41499998793006,733,380],[159.65500008314848,736,401],[182.76500003412366,736,401],[193.3600001502782,736,401],[208.73000007122755,727,399],[232.00000007636845,727,399],[242.70000006072223,727,399],[258.3800000138581,707,394],[281.92500001750886,707,394],[298.53000002913177,717,395],[320.1699999626726,717,395],[327.7450001332909,717,395],[343.42000004835427,689,432],[368.4600000269711,689,432],[382.50500010326505,695,390],[404.7199999913573,695,390],[418.3400000911206,567,445],[440.7650001812726,567,445],[450.90000005438924,567,445],[466.73500002361834,477,549],[488.39000007137656,477,549],[500.9449999779463,449,548],[522.2249999642372,449,548],[533.7549999821931,435,619],[554.1000000666827,435,619],[567.9350001737475,447,520],[589.6350000984967,447,520],[602.3150000255555,443,568],[623.6499999649823,443,568],[633.0399999860674,443,568],[646.2400001473725,400,640],[669.2099999636412,400,640],[678.0449999496341,400,640],[693.1050000712276,422,747],[717.1750001143664,422,747],[726.9450000021607,422,747],[742.1900001354516,752,679],[765.5050000175834,752,679],[782.6350000686944,658,719],[806.8399999756366,658,719],[823.5500000882894,576,492],[847.0350001007318,576,492],[864.8200000170618,558,619],[885.454999981448,558,619],[893.1200001388788,558,619],[909.4000000040978,505,702],[935.2200001012534,505,702],[944.164999993518,505,702],[959.6800000872463,503,756],[986.320000141859,503,756],[996.0849999915808,503,756],[1018.940000096336,453,774],[1053.9949999656528,453,774],[1080.7199999690056,387,755],[1101.9850000739098,387,755],[1111.0199999529868,387,755],[1125.3949999809265,430,791],[1148.5450000036508,430,791],[1159.070000052452,430,791],[1175.2100000157952,373,735],[1199.8400001320988,373,735],[1210.020000115037,373,735],[1225.5800000857562,368,760],[1251.0250001214445,368,760],[1266.7849999852479,423,780],[1288.440000033006,423,780],[1296.7350000981241,423,780],[1308.225000044331,385,758],[1331.1199999880046,385,758],[1347.7900000289083,388,761],[1369.2799999844283,388,761],[1377.0650001242757,388,761],[1392.2550000716,397,774],[1415.7950000371784,397,774],[1431.4850000664592,455,757],[1452.5800000410527,455,757],[1464.8599999491125,426,728],[1486.2250001169741,426,728],[1493.3899999596179,426,728],[1508.3149999845773,410,807],[1532.145000062883,410,807],[1542.780000017956,410,807],[1558.8100000750273,409,757],[1582.2450001724064,409,757],[1598.2300001196563,401,777],[1620.070000179112,401,777],[1627.6599999982864,401,777],[1642.1850000042468,432,738],[1664.115000050515,432,738],[1682.024999987334,416,714],[1702.7400000952184,416,714],[1716.5850000455976,403,752],[1738.5250001680106,403,752],[1751.1200001463294,428,701],[1773.0199999641627,428,701],[1780.8550000190735,428,701],[1792.8500000853091,423,719],[1815.7150000333786,423,719],[1826.5599999576807,423,719],[1842.2450001817197,460,701],[1867.8150000050664,460,701],[1877.5450000539422,460,701],[1892.1950000803918,355,752],[1915.419999975711,355,752],[1926.7750000581145,355,752],[1942.110000178218,418,729],[1964.7099999710917,418,729],[1982.005000114441,425,724],[2002.0250000525266,425,724]]",0,0,0,2,1,-0.3,-0.3,jig,001,2021-03-16_17h05.03.329,TestWebGazer,2021.1.2,MacIntel,60.0024001,,,,,,,
,,,,,,,,,,,,"[[0.034999800845980644,425,724],[12.489999877288938,395,724],[33.40999991632998,395,724],[46.02000000886619,414,736],[67.30999983847141,414,736],[75.84499986842275,414,736],[89.55999999307096,402,733],[114.77499990724027,402,733],[123.979999916628,402,733],[140.36999992094934,388,752],[167.2799999359995,388,752],[176.75999994389713,388,752],[189.59999992512167,438,689],[211.6499999538064,438,689],[230.2249998319894,435,678],[251.54499989002943,435,678],[264.59499984048307,422,680],[284.45499995723367,422,680],[296.7149999458343,400,681],[315.7499998342246,400,681],[324.2499998304993,400,681],[339.65499978512526,399,714],[362.71499982103705,399,714],[379.06999979168177,429,721],[400.5349997896701,429,721],[413.23999990709126,581,733],[435.7349998317659,581,733],[443.06499999947846,581,733],[456.2399999704212,808,794],[480.27999978512526,808,794],[490.92999985441566,808,794],[506.3399998471141,853,723],[529.4449999928474,853,723],[541.1849999800324,853,723],[556.269999826327,832,746],[579.6749999281019,832,746],[590.9449998289347,832,746],[606.4849998801947,820,720],[632.6649999246001,820,720],[641.2399997934699,820,720],[657.124999910593,849,695],[679.9249998293817,849,695],[690.4599999543279,849,695],[707.4099997989833,843,698],[733.4549999795854,843,698],[745.7699999213219,845,664],[768.3749999850988,845,664],[780.5399999488145,853,642],[801.8600000068545,853,642],[809.9349997937679,853,642],[822.7449997793883,853,647],[847.1499998122454,853,647],[862.7749998122454,850,672],[883.8949999772012,850,672],[896.3349999394268,858,685],[915.8349998760968,858,685],[925.3899999894202,858,685],[939.8149999324232,877,689],[965.6649997923523,877,689],[974.2449999321252,877,689],[988.9499999117106,869,692],[1012.4949999153614,869,692],[1029.439999954775,885,631],[1051.4349997974932,885,631],[1069.4899999070913,888,661],[1108.1149999517947,888,661],[1134.8999999463558,880,686],[1165.464999852702,880,686],[1184.709999943152,880,686],[1198.179999832064,886,647],[1218.8549998681992,886,647],[1227.3399999830872,886,647],[1238.9849999453872,894,646],[1260.024999966845,894,646],[1273.8149999640882,894,646],[1298.9550000056624,894,646],[1312.279999954626,869,675],[1333.104999968782,869,675],[1345.9649998694658,877,712],[1367.4199997913092,877,712],[1376.319999806583,877,712],[1389.6349999122322,843,726],[1412.5649998895824,843,726],[1428.699999814853,877,728],[1449.8049998655915,877,728],[1462.349999928847,817,680],[1482.8949999064207,817,680],[1490.8849999774247,817,680],[1506.4299998339266,891,628],[1528.344999998808,891,628],[1545.3749999869615,879,673],[1569.5249999407679,879,673],[1582.0749998092651,910,693],[1603.0299998819828,910,693],[1611.1949998885393,910,693],[1623.7399999517947,909,653],[1647.239999845624,909,653],[1657.4349999427795,909,653],[1672.919999808073,895,659],[1696.5599998366088,895,659],[1707.3949999175966,895,659],[1722.3749998956919,893,633],[1745.619999943301,893,633],[1763.7449998874217,905,685],[1783.2899999339134,905,685],[1792.0299998950213,905,685],[1805.594999808818,884,631],[1825.4399998113513,884,631],[1839.594999793917,882,611],[1861.6449998226017,882,611],[1872.7599999401718,882,611],[1890.4699999839067,869,636],[1915.2699999976903,869,636],[1923.899999819696,869,636],[1940.5199999455363,869,658],[1966.2599998991936,869,658],[1974.5549999643117,869,658],[1989.6949999965727,848,683]]",0,1,1,4,1,0.3,-0.3,jig,001,2021-03-16_17h05.03.329,TestWebGazer,2021.1.2,MacIntel,60.0024001,,,,,,,
,,,,,,,,,,,,"[[0.0950000248849392,848,683],[22.379999980330467,848,683],[33.469999907538295,848,683],[49.14999986067414,864,678],[78.48999998532236,864,678],[89.85499991104007,842,668],[109.4750000629574,842,668],[118.0099998600781,842,668],[132.319999858737,863,683],[157.07499999552965,863,683],[172.61000000871718,898,670],[193.90499987639487,898,670],[201.3499999884516,898,670],[215.73000005446374,889,690],[239.7249999921769,889,690],[250.6299999076873,889,690],[266.85000001452863,875,679],[291.0050000064075,875,679],[305.21999998018146,858,640],[326.6000000294298,858,640],[334.2450000345707,858,640],[348.8749999087304,833,655],[373.7299998756498,833,655],[389.71999986097217,849,619],[409.98999984003603,849,619],[422.6299999281764,989,293],[443.4700000565499,989,293],[455.95999993383884,993,171],[478.15999994054437,993,171],[490.29999994672835,980,162],[514.5849999971688,980,162],[523.3399998396635,980,162],[539.3349998630583,980,124],[559.5449998509139,980,124],[568.2399999350309,980,124],[583.2149998750538,979,143],[608.6949999444187,979,143],[616.6900000534952,979,143],[633.4949999582022,1008,121],[656.8549999501556,1008,121],[667.2799999359995,1008,121],[683.2200000062585,974,149],[708.2099998369813,974,149],[717.380000045523,974,149],[732.2449998464435,1007,178],[756.3650000374764,1007,178],[767.5900000613183,1007,178],[782.5149998534471,968,124],[803.7749999202788,968,124],[822.6049998775125,973,148],[845.9799999836832,973,148],[853.099999949336,973,148],[870.094999903813,990,136],[890.6900000292808,990,136],[904.2299999855459,1011,137],[925.1749999821186,1011,137],[933.9900000486523,1011,137],[949.239999987185,1027,113],[972.9249998927116,1027,113],[983.9250000659376,1027,113],[999.3449999019504,1030,147],[1023.9200000651181,1030,147],[1033.820000011474,1030,147],[1050.8149999659508,996,138],[1077.5399999693036,996,138],[1091.4699998684227,994,121],[1112.459999974817,994,121],[1120.3399999067187,994,121],[1132.2949999012053,1007,101],[1157.4450000189245,1007,101],[1167.4599999096245,1007,101],[1183.034999994561,1008,120],[1209.8049998749048,1008,120],[1218.8299999106675,1008,120],[1233.5899998433888,987,133],[1256.7799999378622,987,133],[1271.7450000345707,993,138],[1292.9249999579042,993,138],[1300.844999961555,993,138],[1315.7699999865144,946,138],[1338.7799998745322,946,138],[1349.0299999248236,946,138],[1366.87000002712,952,143],[1390.584999928251,952,143],[1400.3899998497218,952,143],[1416.9099999126047,940,157],[1442.9699999745935,940,157],[1452.4250000249594,940,157],[1466.75999998115,971,171],[1490.2949999086559,971,171],[1505.3850000258535,963,136],[1525.7399999536574,963,136],[1538.5050000622869,967,153],[1558.3899999037385,967,153],[1567.3199999146163,967,153],[1582.674999954179,969,106],[1607.0199999958277,969,106],[1617.5199998542666,969,106],[1633.2849999889731,972,186],[1657.3699999134988,972,186],[1666.5849999990314,972,186],[1684.224999975413,947,161],[1705.4749999660999,947,161],[1722.4449999630451,972,185],[1744.5749999023974,972,185],[1752.339999889955,972,185],[1766.594999935478,951,188],[1790.4250000137836,951,188],[1805.0599999260157,953,188],[1825.0599999446422,953,188],[1837.96999999322,967,199],[1859.870000043884,967,199],[1867.1399999875575,967,199],[1883.8400000240654,959,201],[1908.094999846071,959,201],[1917.094999924302,959,201],[1932.2750000283122,1003,185],[1955.769999884069,1003,185],[1971.7800000216812,969,142],[1992.0850000344217,969,142]]",0,2,2,3,1,0.3,0.3,jig,001,2021-03-16_17h05.03.329,TestWebGazer,2021.1.2,MacIntel,60.0024001,,,,,,,
,,,,,,,,,,,,"[[0.0350000336766243,969,142],[7.899999851360917,969,142],[24.34999984689057,999,196],[48.854999942705035,999,196],[57.9299998935312,999,196],[74.32999997399747,977,173],[97.54500002600253,977,173],[112.37500002607703,967,178],[133.01500002853572,967,178],[141.3199999369681,967,178],[156.4350000116974,934,156],[179.74999989382923,934,156],[195.97500003874302,987,137],[217.17999991960824,987,137],[226.0600000154227,987,137],[240.78499991446733,996,119],[264.73499997518957,996,119],[274.8849999625236,996,119],[290.1099999435246,1002,109],[313.0949998740107,1002,109],[329.64499993249774,990,79],[351.59999993629754,990,79],[364.1800000332296,674,200],[387.2650000266731,674,200],[400.20000003278255,440,216],[421.7250000219792,440,216],[431.63500004447997,440,216],[446.6049999464303,406,173],[467.729999916628,406,173],[475.75500002130866,406,173],[490.34000001847744,455,194],[514.784999890253,455,194],[528.7949999328703,453,214],[550.6849999073893,453,214],[558.4749998524785,453,214],[574.3350000120699,441,237],[599.2900000419468,441,237],[612.724999897182,465,224],[632.3649999685585,465,224],[640.5899999663234,465,224],[657.0549998432398,448,197],[681.7899998277426,448,197],[696.0499999113381,444,170],[717.7249998785555,444,170],[726.0199999436736,444,170],[739.6799998823553,449,198],[761.289999820292,449,198],[779.7949998639524,454,162],[801.1300000362098,454,162],[809.1349999886006,454,162],[822.8349999990314,446,217],[843.4249998535961,446,217],[860.6900000013411,446,221],[884.224999928847,446,221],[899.0199998952448,442,184],[928.9449998177588,442,184],[944.3500000052154,459,234],[966.6999999899417,459,234],[979.5450000092387,480,228],[1003.2099999953061,480,228],[1011.594999814406,480,228],[1024.1199999582022,492,201],[1050.099999876693,492,201],[1058.2799999974668,492,201],[1073.5199998598546,538,203],[1096.9899999909103,538,203],[1108.3899999503046,538,203],[1123.9599999971688,522,226],[1149.3400000035763,522,226],[1157.9399998299778,522,226],[1173.7849998753518,484,204],[1200.6599998567253,484,204],[1208.7349998764694,484,204],[1223.1049998663366,488,225],[1245.9399998188019,488,225],[1263.1299998611212,478,230],[1287.0799999218434,478,230],[1294.1949998494238,478,230],[1306.8649999331683,481,245],[1329.0699999779463,481,245],[1346.1100000422448,469,263],[1366.0349999554455,469,263],[1379.2049998883158,492,213],[1400.9999998379499,492,213],[1412.769999820739,509,217],[1432.7449998818338,509,217],[1446.6049999464303,522,195],[1467.4549999181181,522,195],[1475.7299998309463,522,195],[1489.409999921918,496,193],[1511.1650000326335,496,193],[1527.6450000237674,519,191],[1549.834999954328,519,191],[1563.7449999339879,483,223],[1585.8299999963492,483,223],[1598.374999826774,454,175],[1619.21999999322,454,175],[1626.7099999822676,454,175],[1640.919999917969,514,182],[1665.1200000196695,514,182],[1674.9650000128895,514,182],[1690.0849998928607,506,158],[1713.22499983944,506,158],[1725.2549999393523,506,158],[1739.5049999468029,494,230],[1762.9799998831004,494,230],[1774.5399998966604,494,230],[1789.3949998542666,503,233],[1812.7749999985099,503,233],[1829.6850000042468,527,144],[1853.415000019595,527,144],[1859.7199998330325,527,144],[1874.064999865368,514,229],[1898.1349999085069,514,229],[1913.0199998617172,518,241],[1933.3199998363853,518,241],[1941.1299999337643,518,241],[1957.0899999234825,520,250],[1983.1999999005347,520,250],[1996.1449999827892,474,279]]",0,3,3,1,1,-0.3,0.3,jig,001,2021-03-16_17h05.03.329,TestWebGazer,2021.1.2,MacIntel,60.0024001,,,,,,,
,,,,,,,,,,,,"[[0.029999995604157448,474,279],[22.720000008121133,474,279],[33.94499979913235,509,156],[58.465000009164214,509,156],[65.79499994404614,509,156],[80.34999994561076,503,183],[102.37499978393316,503,183],[111.08499998226762,503,183],[126.66499987244606,493,198],[150.85999993607402,493,198],[167.454999871552,498,223],[190.8249999396503,498,223],[198.62999999895692,498,223],[213.83499982766807,525,180],[236.32499994710088,525,180],[244.38999989069998,525,180],[260.56499988771975,513,214],[289.70499988645315,513,214],[297.7199999149889,513,214],[310.3249999694526,514,212],[336.9049998000264,514,212],[344.70999985933304,514,212],[361.2249998841435,512,215],[386.6799999959767,512,215],[394.8299998883158,512,215],[410.0699999835342,666,271],[437.5199999194592,666,271],[450.0399997923523,706,339],[472.28999994695187,706,339],[484.0649999678135,700,350],[505.4699999745935,700,350],[512.9749998450279,700,350],[527.7849999256432,718,330],[551.9199999980628,718,330],[567.0599997974932,706,332],[589.3749999813735,706,332],[596.6449999250472,706,332],[610.4249998461455,754,353],[635.5749999638647,754,353],[645.1749999541789,754,353],[659.8649998195469,751,331],[688.2699998095632,751,331],[701.1499998625368,753,345],[723.994999891147,753,345],[734.6449999604374,753,345],[749.7649998404086,755,361],[772.7200000081211,755,361],[780.399999814108,755,361],[793.3449998963624,717,358],[815.7399999909103,717,358],[833.5549999028444,747,367],[856.8099997937679,747,367],[864.1649999190122,747,367],[877.7949998620898,739,353],[902.3399997968227,739,353],[915.7899999991059,713,372],[936.6649999283254,713,372],[949.3950000032783,695,372],[969.3099998403341,695,372],[978.3549997955561,695,372],[993.2899998966604,737,330],[1017.1850000042468,737,330],[1028.2049998641014,737,330],[1042.9149998817593,739,341],[1065.574999898672,739,341],[1081.0899999924004,704,346],[1102.8299999888986,704,346],[1116.2999998778105,728,330],[1137.5349999871105,728,330],[1144.9049999937415,728,330],[1159.9449999630451,715,356],[1183.394999941811,715,356],[1200.3549998626113,707,341],[1222.2099998034537,707,341],[1236.6849998943508,693,345],[1260.8499999623746,693,345],[1277.4849999696016,694,342],[1302.1949999965727,694,342],[1311.0249999444932,694,342],[1327.240000013262,695,327],[1354.1349999140948,695,327],[1367.2549999319017,700,349],[1391.1349999252707,700,349],[1403.3599998801947,732,314],[1424.4150000158697,732,314],[1439.3699998036027,759,323],[1462.3699998483062,759,323],[1481.0749997850507,747,363],[1502.4849998299032,747,363],[1510.9099999535829,747,363],[1526.5349999535829,702,337],[1550.2400000113994,702,337],[1565.004999982193,676,382],[1588.4249999653548,676,382],[1596.689999802038,676,382],[1610.2549999486655,712,344],[1634.349999949336,712,344],[1645.7399998325855,712,344],[1660.2499999571592,683,377],[1684.9449998699129,683,377],[1699.6249998919666,728,320],[1724.3749999906868,728,320],[1733.934999909252,728,320],[1747.2849998157471,740,313],[1769.2499998956919,740,313],[1777.619999833405,740,313],[1793.4049998875707,730,328],[1816.1599999293685,730,328],[1833.1400000024587,713,354],[1857.6799998991191,713,354],[1868.6249998863786,718,318],[1888.9199998229742,718,318],[1896.714999806136,718,318],[1911.0399999190122,718,322],[1934.1499998699874,718,322],[1943.8549999613315,718,322],[1960.234999889508,740,329],[1983.3399998024106,740,329],[1994.7149998042732,740,329]]",0,4,4,0,1,0,0,jig,001,2021-03-16_17h05.03.329,TestWebGazer,2021.1.2,MacIntel,60.0024001,,,,,,,
,,,,,,,,,,,,,,,,,,,,jig,001,2021-03-16_17h05.03.329,TestWebGazer,2021.1.2,MacIntel,60.0024001,space,1.72781,3,0,3,0,1
,,,,,,,,,,,,"[[0.0350000336766243,867,374],[13.879999984055758,895,378],[34.435000037774444,895,378],[43.33499982021749,895,378],[57.10999993607402,890,367],[78.61500000581145,890,367],[94.79999984614551,890,409],[118.50999994203448,890,409],[126.76499993540347,890,409],[142.18500000424683,917,399],[165.57499999180436,917,399],[175.7199999410659,917,399],[190.5149999074638,920,376],[213.49999983794987,920,376],[226.07499989680946,920,376],[241.99499981477857,917,388],[267.35499990172684,917,388],[281.10499982722104,931,391],[303.6849999334663,931,391],[310.8149999752641,931,391],[324.6849998831749,914,390],[350.16999999061227,914,390],[364.35499996878207,908,334],[386.69499987736344,908,334],[394.68999998643994,908,334],[407.389999832958,874,467],[431.78500002250075,874,467],[446.6750000137836,864,515],[467.8050000220537,864,515],[475.1299999188632,864,515],[491.2499999627471,885,503],[514.2549998126924,885,503],[526.1349999345839,885,503],[541.7949999682605,893,529],[565.9449999220669,893,529],[575.5499999504536,893,529],[590.7550000119954,923,591],[614.3649998120964,923,591],[630.1249999087304,892,589],[651.8999999389052,892,589],[665.0300000328571,911,586],[686.9550000410527,911,586],[694.819999858737,911,586],[707.0499998517334,900,601],[729.5699999667704,900,601],[746.9499998260289,881,626],[769.1649999469519,881,626],[777.1799999754876,881,626],[791.169999865815,881,601],[813.239999813959,881,601],[830.7900000363588,900,584],[853.2600000035018,900,584],[866.3599998690188,935,600],[889.339999994263,935,600],[904.0999999269843,939,601],[927.9799999203533,939,601],[945.2949999831617,940,604],[966.4649998303503,940,604],[975.4249998368323,940,604],[991.1299999803305,897,596],[1014.7299999371171,897,596],[1030.1699999254197,922,636],[1053.0399999115616,922,636],[1061.1250000074506,922,636],[1074.934999924153,869,624],[1099.350000033155,869,624],[1109.8749998491257,869,624],[1124.5649999473244,875,631],[1148.2149998191744,875,631],[1159.029999980703,875,631],[1174.6900000143796,865,618],[1199.945000000298,865,618],[1209.1649998910725,865,618],[1223.7650000024587,846,657],[1247.264999896288,846,657],[1262.394999852404,838,688],[1283.670000033453,838,688],[1297.7899999823421,852,690],[1319.6049998514354,852,690],[1333.454999839887,818,596],[1354.9199998378754,818,596],[1367.3699998762459,839,594],[1389.9899998214096,839,594],[1399.585000006482,839,594],[1411.2549999263138,846,552],[1432.245000032708,846,552],[1447.3649999126792,850,613],[1467.414999846369,850,613],[1476.1550000403076,850,613],[1491.1499998997897,871,569],[1517.5850000232458,871,569],[1530.5200000293553,896,608],[1553.2449998427182,896,608],[1560.8449999708682,896,608],[1573.7649998627603,841,618],[1596.8449998181313,841,618],[1613.7549998238683,892,590],[1634.84499999322,892,590],[1642.1799999661744,892,590],[1657.6649998314679,909,581],[1681.269999826327,909,581],[1691.2849999498576,909,581],[1707.2850000113249,886,595],[1730.8949998114258,886,595],[1742.7199999801815,886,595],[1757.3149998206645,859,576],[1784.8399998620152,859,576],[1793.4250000398606,859,576],[1807.2299999184906,863,595],[1831.7199999000877,863,595],[1848.4499999321997,859,573],[1870.5149998422712,859,573],[1878.389999968931,859,573],[1891.0199999809265,864,566],[1912.1449999511242,864,566],[1931.3149999361485,849,555],[1954.5650000218302,849,555],[1966.8399998918176,869,585],[1989.6650000009686,869,585]]",0,0,0,4,1,0.3,-0.3,jig,001,2021-03-16_17h05.03.329,TestWebGazer,2021.1.2,MacIntel,60.0024001,,,,,,,
,,,,,,,,,,,,"[[0.054999953135848045,869,585],[9.945000056177378,869,585],[26.28499991260469,896,584],[50.204999977722764,896,584],[66.97000004351139,905,616],[88.15500000491738,905,616],[107.85500006750226,859,652],[130.33000007271767,859,652],[144.06999992206693,872,665],[165.95500009134412,872,665],[179.11499994806945,880,673],[202.27500004693866,880,673],[216.96000010706484,859,661],[238.7800000142306,859,661],[256.7149999085814,850,607],[278.14500010572374,850,607],[291.68500006198883,894,642],[312.5150001142174,894,642],[321.92500005476177,894,642],[334.2899999115616,871,642],[356.0900001320988,871,642],[374.82000002637506,852,629],[414.07499997876585,852,629],[440.79499994404614,626,704],[466.9500000309199,626,704],[485.5049999896437,626,704],[500.9399999398738,477,660],[524.6550000738353,477,660],[540.0799999479204,482,676],[560.2400000207126,482,676],[574.1699999198318,470,682],[596.4800000656396,470,682],[603.6400001030415,470,682],[617.0950001105666,446,637],[639.7700000088662,446,637],[650.7900001015514,446,637],[668.0700001306832,448,614],[692.3150001093745,448,614],[710.3750000242144,448,606],[730.1449999213219,448,606],[738.4049999527633,448,606],[751.189999980852,421,623],[775.1249999273568,421,623],[790.4050000943244,440,618],[811.625000089407,440,618],[824.7849999461323,448,600],[846.1599999573082,448,600],[858.1050001084805,455,596],[878.9099999703467,455,596],[886.9350000750273,455,596],[900.8949999697506,455,596],[923.8299999851733,455,596],[941.5400000289083,424,617],[964.3950001336634,424,617],[977.8100000694394,458,616],[999.4850000366569,458,616],[1009.9400000181049,458,616],[1025.6700001191348,473,584],[1049.8800000641495,473,584],[1064.8000000510365,430,590],[1086.5800001192838,430,590],[1104.7600000165403,423,574],[1127.5400000158697,423,574],[1135.4050000663847,423,574],[1150.9350000414997,427,655],[1174.6000000275671,427,655],[1185.7249999884516,427,655],[1200.3699999768287,425,639],[1223.6099999863654,425,639],[1239.5399999804795,451,616],[1261.3250000867993,451,616],[1270.0100000947714,451,616],[1285.1200001314282,421,637],[1309.855000115931,421,637],[1324.8149999417365,399,655],[1347.7249999996275,399,655],[1361.2100000027567,438,666],[1382.6150000095367,438,666],[1392.7249999251217,438,666],[1404.6750001143664,447,682],[1428.234999999404,447,682],[1436.4300000015646,447,682],[1452.1699999459088,446,697],[1476.6100000124425,446,697],[1485.575000056997,446,697],[1501.3649999164045,405,673],[1528.9749999064952,405,673],[1537.4499999452382,405,673],[1552.2000000346452,419,665],[1575.0850001350045,419,665],[1590.1600001379848,473,669],[1609.8549999296665,473,669],[1618.9800000283867,473,669],[1634.7950000781566,500,683],[1662.6599999144673,500,683],[1676.370000001043,455,621],[1699.8300000559539,455,621],[1709.6299999393523,455,621],[1726.8050001002848,458,648],[1749.3650000542402,458,648],[1759.92999994196,458,648],[1773.5250000841916,467,635],[1796.2849999312311,467,635],[1805.2799999713898,467,635],[1818.19500005804,415,646],[1841.6299999225885,415,646],[1852.6850000489503,415,646],[1867.8200000431389,406,625],[1893.9450001344085,406,625],[1902.195000089705,406,625],[1918.830000096932,409,638],[1942.3400000669062,409,638],[1958.020000020042,402,650],[1979.5450000092387,402,650],[1986.754999961704,402,650],[2000.7650000043213,476,691]]",0,1,1,2,1,-0.3,-0.3,jig,001,2021-03-16_17h05.03.329,TestWebGazer,2021.1.2,MacIntel,60.0024001,,,,,,,
,,,,,,,,,,,,"[[0.034999800845980644,476,691],[27.454999973997474,476,691],[41.11999995075166,434,632],[64.00499981828034,434,632],[71.83999987319112,434,632],[86.33999992161989,427,668],[108.52000000886619,427,668],[117.72500001825392,427,668],[132.90999992750585,380,699],[156.15499997511506,380,699],[172.05499997362494,458,691],[193.72499990276992,458,691],[201.1499998625368,458,691],[216.9849998317659,420,646],[240.44499988667667,420,646],[250.739999813959,420,646],[266.4199999999255,447,707],[289.42999988794327,447,707],[305.88999995961785,451,727],[327.6249999180436,451,727],[340.06499988026917,461,665],[361.21499980799854,461,665],[369.2999999038875,461,665],[383.2149999216199,461,674],[407.28499996475875,461,674],[418.0999998934567,461,674],[432.7449998818338,613,594],[455.79499984160066,613,594],[473.0049998033792,730,413],[497.75999994017184,730,413],[504.7400000039488,730,413],[517.0349997933954,755,395],[540.7049998175353,755,395],[550.8200000040233,755,395],[566.6049998253584,746,376],[594.669999787584,746,376],[603.5549999214709,746,376],[616.379999788478,771,382],[639.6799997892231,771,382],[649.8999998439103,771,382],[667.0349999330938,772,356],[697.0499998424202,772,356],[703.8549999706447,772,356],[716.6849998757243,758,370],[740.3849998954684,758,370],[750.3599999472499,758,370],[767.0049997977912,736,454],[792.684999993071,736,454],[801.1699998751283,736,454],[817.2199998516589,742,425],[842.6999999210238,742,425],[856.1099998187274,731,402],[876.6899998299778,731,402],[885.0799999199808,731,402],[900.3549998160452,715,429],[926.8799999263138,715,429],[935.7799999415874,715,429],[949.5099999476224,717,417],[971.2399998679757,717,417],[989.8599998559803,760,392],[1010.8649998437613,760,392],[1023.1049999129027,738,430],[1042.9049998056144,738,430],[1056.6349998116493,766,392],[1076.6549999825656,766,392],[1084.6599999349564,766,392],[1099.7499998193234,762,395],[1124.3049998302013,762,395],[1140.4249998740852,768,431],[1163.8799998909235,768,431],[1177.1449998486787,711,473],[1201.3399999123067,711,473],[1217.1649998053908,755,411],[1240.144999930635,755,411],[1254.5349998399615,715,422],[1276.4349998906255,715,422],[1290.6749998219311,737,384],[1311.8600000161678,737,384],[1320.175000000745,737,384],[1333.939999807626,738,397],[1358.714999863878,738,397],[1367.48499982059,738,397],[1383.814999833703,742,395],[1407.4649999383837,742,395],[1418.0699998978525,742,395],[1432.8549997881055,711,400],[1459.7649998031557,711,400],[1473.4649998135865,756,410],[1496.0299998056144,756,410],[1503.4250000026077,756,410],[1516.3249999750406,762,384],[1539.759999839589,762,384],[1550.7349998224527,762,384],[1566.1299999337643,754,405],[1589.1149998642504,754,405],[1601.814999943599,754,405],[1617.354999994859,737,394],[1641.8449999764562,737,394],[1651.8799997866154,737,394],[1666.3299999199808,732,337],[1689.9499997962266,732,337],[1705.6449998635799,721,351],[1727.3899998981506,721,351],[1735.124999890104,721,351],[1750.7149998564273,722,367],[1775.2549999859184,722,367],[1792.7149999886751,680,414],[1813.554999884218,680,414],[1824.6249998919666,680,414],[1838.9449999667704,733,383],[1860.6300000101328,733,383],[1868.419999955222,733,383],[1882.949999999255,717,413],[1906.5499999560416,717,413],[1921.4949999004602,696,403],[1943.6549998354167,696,403],[1956.0249999631196,694,393],[1976.2299999129027,694,393],[1984.1649997979403,694,393],[2000.749999890104,673,414]]",0,2,2,0,1,0,0,jig,001,2021-03-16_17h05.03.329,TestWebGazer,2021.1.2,MacIntel,60.0024001,,,,,,,
,,,,,,,,,,,,"[[0.0350000336766243,673,414],[22.25499995984137,673,414],[38.96000003442168,700,419],[61.17499992251396,700,419],[69.32500004768372,700,419],[82.04000000841916,730,427],[107.23500000312924,730,427],[123.64999996498227,742,439],[162.86999988369644,742,439],[188.605000032112,723,429],[213.59999990090728,723,429],[238.52499993517995,741,397],[261.74500002525747,741,397],[270.2800000552088,741,397],[286.15000005811453,706,343],[309.40499994903803,706,343],[323.12000007368624,730,379],[346.97000007145107,730,379],[356.0099999886006,730,379],[369.9699998833239,746,381],[394.1349999513477,746,381],[406.5350000746548,517,277],[428.3749999012798,517,277],[436.53499986976385,517,277],[448.43999994918704,488,248],[470.64499999396503,488,248],[487.30999999679625,485,238],[508.7349999230355,485,238],[516.3650000467896,485,238],[532.2000000160187,467,172],[555.3200000431389,467,172],[566.56499998644,467,172],[582.1749998722225,477,277],[608.0849999561906,477,277],[616.8799998704344,477,277],[631.5349999349564,482,237],[654.8750000074506,482,237],[666.0199998877943,482,237],[682.8900000546128,490,192],[708.0899998545647,490,192],[716.2800000514835,490,192],[732.0949998684227,511,182],[759.129999903962,511,182],[767.3499998636544,511,182],[781.1600000131875,519,281],[804.1799999773502,519,281],[815.9449999220669,519,281],[831.7299999762326,486,196],[859.0949999634176,486,196],[871.3599999900907,502,142],[892.9550000466406,502,142],[905.144999967888,511,172],[926.1650000698864,511,172],[939.0350000467151,529,219],[960.7549998909235,529,219],[968.2449998799711,529,219],[982.0749999489635,513,172],[1007.0400000549853,513,172],[1016.1649999208748,513,172],[1032.0800000336021,500,214],[1059.6950000617653,500,214],[1067.2299999278039,500,214],[1082.3500000406057,505,266],[1106.9199999328703,505,266],[1116.9749998953193,505,266],[1131.169999949634,527,242],[1155.1149999722838,527,242],[1166.190000018105,527,242],[1182.4000000488013,551,328],[1207.5249999761581,551,328],[1216.2200000602752,551,328],[1232.1299999020994,528,300],[1259.360000025481,528,300],[1273.0049998499453,532,273],[1293.7849999871105,532,273],[1302.0500000566244,532,273],[1314.9449999909848,553,242],[1339.0200000721961,553,242],[1354.4449999462813,553,242],[1375.2699999604374,553,242],[1383.149999892339,553,242],[1398.7699998542666,540,251],[1423.105000052601,540,251],[1433.4199998993427,540,251],[1448.5299999359995,554,215],[1471.4699999894947,554,215],[1483.3249999210238,554,215],[1498.9950000308454,547,245],[1526.924999896437,547,245],[1538.8449998572469,573,237],[1562.2199999634176,573,237],[1570.839999942109,573,237],[1582.979999948293,565,245],[1605.784999905154,565,245],[1616.3500000257045,565,245],[1631.7199999466538,566,252],[1658.9500000700355,566,252],[1671.824999852106,547,246],[1695.4550000373274,547,246],[1707.0999999996275,565,229],[1729.1449999902397,565,229],[1746.12500006333,554,243],[1768.3599998708814,554,243],[1787.735000019893,534,201],[1810.1449999958277,534,201],[1823.4800000209361,554,197],[1846.3299998547882,554,197],[1852.9799999669194,554,197],[1865.6450000125915,542,208],[1890.224999981001,542,208],[1899.6049999259412,542,208],[1914.7299998439848,544,290],[1938.564999960363,544,290],[1950.840000063181,544,290],[1965.2400000486523,546,270],[1994.5399998687208,546,270]]",0,3,3,1,1,-0.3,0.3,jig,001,2021-03-16_17h05.03.329,TestWebGazer,2021.1.2,MacIntel,60.0024001,,,,,,,
,,,,,,,,,,,,"[[0.029999995604157448,546,270],[10.77999989502132,563,227],[33.17499998956919,563,227],[45.26500008068979,556,231],[66.68499996885657,556,231],[75.33999998122454,556,231],[87.6299999654293,561,229],[110.7999999076128,561,229],[122.135000070557,561,229],[136.5900000091642,561,181],[163.49499998614192,561,181],[177.2449999116361,547,243],[198.95999995060265,547,243],[210.55499999783933,543,203],[235.0600000936538,543,203],[242.5049999728799,543,203],[257.72499991580844,545,284],[280.1600000821054,545,284],[293.0799999739975,575,248],[313.9249999076128,575,248],[322.78999988920987,575,248],[336.66000002995133,572,240],[358.10500010848045,572,240],[377.4449999909848,970,295],[401.09500009566545,970,295],[414.15999992750585,987,317],[439.9600001052022,987,317],[457.4450000654906,980,344],[477.3649999406189,980,344],[487.070000031963,980,344],[503.6400000099093,976,277],[528.3399999607354,976,277],[538.9650000724941,976,277],[553.3249999862164,1029,233],[576.5849999152124,1029,233],[587.1949999127537,1029,233],[603.5050000064075,1019,225],[627.4399999529123,1019,225],[638.2899999152869,1019,225],[652.8900000266731,980,286],[677.3000000976026,980,286],[687.7049999311566,980,286],[703.3150000497699,982,258],[727.6399999391288,982,258],[738.7300000991672,982,258],[753.7599999923259,1006,182],[778.2199999783188,1006,182],[787.5200000125915,1006,182],[803.3400001004338,1032,246],[827.2750000469387,1032,246],[843.5349999926984,1005,208],[866.3850000593811,1005,208],[875.0700000673532,1005,208],[890.8400000073016,1021,166],[912.8000000491738,1021,166],[926.1050000786781,1026,193],[947.1799999009818,1026,193],[955.2949999924749,1026,193],[970.4650000203401,1033,229],[997.399999992922,1033,229],[1005.5299999658018,1033,229],[1020.930000115186,1007,221],[1044.454999966547,1007,221],[1054.8799999523908,1007,221],[1070.6050000153482,1011,191],[1099.0500000771135,1011,191],[1110.9450000803918,1015,171],[1134.2499998863786,1015,171],[1141.6199998930097,1015,171],[1154.8450000118464,992,173],[1178.4250000491738,992,173],[1187.5299999956042,992,173],[1204.5400000642985,992,167],[1232.4949998874217,992,167],[1245.5700000282377,976,164],[1267.879999941215,976,164],[1275.55499994196,976,164],[1290.5099999625236,1004,161],[1314.5500000100583,1004,161],[1321.8249999918044,1004,161],[1337.1749999932945,989,279],[1363.2249999791384,989,279],[1371.430000057444,989,279],[1386.7099999915808,962,249],[1412.2450000140816,962,249],[1426.0950000025332,987,233],[1448.0250000488013,987,233],[1455.0900000613183,987,233],[1470.9449999500066,974,221],[1497.0799998845905,974,221],[1505.379999987781,974,221],[1519.9450000654906,992,247],[1544.8700000997633,992,247],[1560.7600000221282,962,216],[1583.515000063926,962,216],[1591.285000089556,962,216],[1602.9550000093877,972,276],[1625.1149999443442,972,276],[1636.8549999315292,972,276],[1653.1400000676513,963,204],[1675.550000043586,963,204],[1693.269999930635,1008,186],[1715.2599999681115,1008,186],[1723.255000077188,1008,186],[1736.744999885559,1001,163],[1759.4500000122935,1001,163],[1777.18500001356,993,190],[1797.8399998974055,993,190],[1805.5749998893589,993,190],[1821.0799999069422,1007,191],[1843.2000000029802,1007,191],[1859.54499989748,983,250],[1880.6749999057502,983,250],[1889.1749999020249,983,250],[1903.3200000412762,970,198],[1927.3850000463426,970,198],[1938.1349999457598,970,198],[1952.9699999839067,1009,217],[1976.4199999626726,1009,217],[1992.58999992162,1025,183]]",0,4,4,3,1,0.3,0.3,jig,001,2021-03-16_17h05.03.329,TestWebGazer,2021.1.2,MacIntel,60.0024001,,,,,,,
,,,,,,,,,,,,,,,,,,,,jig,001,2021-03-16_17h05.03.329,TestWebGazer,2021.1.2,MacIntel,60.0024001,space,0.785315,4,0,4,0,1
,,,,,,,,,,,,"[[0.0350000336766243,775,322],[32.044999999925494,775,322],[52.00000014156103,775,322],[67.03500007279217,761,371],[94.03000003658235,761,371],[115.38000009022653,716,404],[141.6050000116229,716,404],[157.86500019021332,724,441],[183.30000014975667,724,441],[197.4950002040714,755,430],[218.9350000116974,755,430],[232.10000013932586,771,416],[255.10000018402934,771,416],[270.22500010207295,761,376],[292.1250001527369,761,376],[310.54500001482666,746,380],[332.2150001768023,746,380],[341.35000011883676,746,380],[356.35500005446374,767,387],[379.905000096187,767,387],[390.7450002152473,767,387],[406.54500015079975,708,387],[430.750000057742,708,387],[441.2599999923259,708,387],[456.17500017397106,527,259],[480.805000057444,527,259],[491.06000014580786,527,259],[506.5700002014637,480,293],[532.0100001990795,480,293],[542.1550001483411,480,293],[556.0400001704693,481,236],[578.8900000043213,481,236],[595.8550001960248,491,245],[615.3750000521541,491,245],[623.6900000367314,491,245],[640.0450000073761,508,280],[664.9200001265854,508,280],[680.9650000650436,506,292],[703.0800001230091,506,292],[716.8850000016391,492,214],[739.0200002118945,492,214],[760.7850001659244,489,233],[782.100000185892,489,233],[791.0400000400841,489,233],[806.5550001338124,487,216],[832.3400001972914,487,216],[841.6150000412017,487,216],[856.0000001452863,486,281],[879.1200001724064,486,281],[895.2100002206862,467,285],[916.4750000927597,467,285],[924.2400000803173,467,285],[939.7300002165139,455,263],[962.5150000210851,455,263],[978.3350001089275,472,220],[1000.6900001317263,472,220],[1013.6900001671165,523,299],[1037.6699999906123,523,299],[1044.5700001437217,523,299],[1056.4400001894683,514,280],[1081.9300001021475,514,280],[1091.6150000412017,514,280],[1106.5900002140552,530,252],[1130.6550002191216,530,252],[1141.3350000511855,530,252],[1157.090000109747,521,231],[1182.8700001351535,521,231],[1192.0549999922514,521,231],[1206.2550000846386,523,242],[1227.98000019975,523,242],[1245.7000000867993,513,226],[1268.9750001300126,513,226],[1276.415000203997,513,226],[1290.3400000650436,525,346],[1314.9350001476705,525,346],[1329.440000001341,542,236],[1350.5900001619011,542,236],[1358.0800001509488,542,236],[1373.250000178814,536,217],[1397.9550001677126,536,217],[1408.5500000510365,536,217],[1424.315000185743,537,216],[1447.440000018105,537,216],[1457.4950002133846,537,216],[1473.245000001043,534,231],[1497.4550001788884,534,231],[1508.4400000050664,534,231],[1524.0400000475347,509,210],[1549.1400000173599,509,210],[1562.9350000526756,511,249],[1583.8350001722574,511,249],[1591.7550001759082,511,249],[1606.6100001335144,518,238],[1636.7650001775473,518,238],[1648.574999999255,527,250],[1669.4250002037734,527,250],[1677.4200000800192,527,250],[1694.035000167787,554,269],[1717.875000089407,554,269],[1729.9750000238419,551,260],[1750.8249999955297,551,260],[1763.560000108555,533,269],[1784.2350001446903,533,269],[1797.0900000073016,525,228],[1817.9200000595301,525,228],[1826.1300001759082,525,228],[1840.400000102818,563,212],[1865.5300000682473,563,212],[1873.7300001084805,563,212],[1890.5750000849366,541,334],[1915.535000152886,541,334],[1929.0150001179427,512,300],[1950.3800000529736,512,300],[1957.630000077188,512,300],[1972.855000058189,491,296],[1995.9950000047684,491,296]]",0,0,0,1,1,-0.3,0.3,jig,001,2021-03-16_17h05.03.329,TestWebGazer,2021.1.2,MacIntel,60.0024001,,,,,,,
,,,,,,,,,,,,"[[0.029999995604157448,491,296],[11.789999902248383,491,296],[27.479999931529164,489,315],[52.46499995701015,489,315],[61.209999956190586,489,315],[77.019999967888,464,361],[105.3749998100102,464,361],[118.3199998922646,535,281],[141.85000001452863,535,281],[150.79499990679324,535,281],[167.85999992862344,531,254],[190.4050000011921,531,254],[199.3650000076741,531,254],[210.83500003442168,563,215],[238.1100000347942,563,215],[246.2999999988824,563,215],[260.37000003270805,523,275],[286.46499989554286,523,275],[296.2499998975545,523,275],[310.06999989040196,524,370],[333.42499984428287,524,370],[344.6299999486655,524,370],[361.46499984897673,506,369],[385.2199998218566,506,369],[400.2999998629093,498,406],[421.6299999970943,498,406],[434.52499993145466,513,634],[456.0499999206513,513,634],[464.1799998935312,513,634],[477.7750000357628,496,623],[500.42499997653067,496,623],[510.71499986574054,496,623],[527.619999833405,465,547],[554.4199999421835,465,547],[562.0899999048561,465,547],[576.8799998331815,538,573],[600.014999974519,538,573],[616.5599999949336,513,560],[638.2699999958277,513,560],[650.7299998775125,526,613],[671.254999935627,526,613],[679.6299999114126,526,613],[693.9699999056756,486,622],[718.034999910742,486,622],[728.4249998629093,486,622],[743.5099999420345,520,612],[768.7399999704212,520,612],[785.9949998091906,514,564],[833.0249998252839,514,564],[874.3000000249594,510,674],[899.7749998234212,510,674],[919.7899999562651,510,674],[936.1399998888373,476,596],[960.0899999495596,476,596],[977.2200000006706,502,571],[1003.3449998591095,502,571],[1016.2599999457598,547,590],[1039.9849999230355,547,590],[1048.414999851957,547,590],[1061.4849999547005,548,597],[1084.949999814853,548,597],[1094.2849998828024,548,597],[1110.344999935478,490,633],[1133.9900000020862,490,633],[1145.1999999117106,490,633],[1159.694999922067,492,671],[1182.4049998540431,492,671],[1199.8250000178814,509,664],[1221.9049998093396,509,664],[1235.6300000101328,515,663],[1257.4050000403076,515,663],[1264.7100000176579,515,663],[1276.8449999857694,511,654],[1301.3049999717623,511,654],[1316.7099999263883,540,610],[1337.919999845326,540,610],[1350.319999968633,507,627],[1371.6199998743832,507,627],[1384.4200000166893,519,596],[1405.1549998112023,519,596],[1413.9049998484552,519,596],[1427.4999999906868,524,647],[1452.324999962002,524,647],[1461.4399999845773,524,647],[1478.0800000298768,524,674],[1504.1549999732524,524,674],[1517.6599998958409,492,645],[1538.5499999392778,492,645],[1554.204999934882,496,631],[1575.3949999343604,496,631],[1586.505000013858,496,631],[1600.8249998558313,523,613],[1623.1449998449534,523,613],[1630.9249999467283,523,613],[1643.9499999396503,483,630],[1669.705000007525,483,630],[1678.8999999407679,483,630],[1692.9549998603761,493,630],[1715.2599999681115,493,630],[1733.2799998112023,550,652],[1753.654999891296,550,652],[1762.719999998808,550,652],[1776.8349999096245,521,626],[1804.7950000036508,521,626],[1816.9849999248981,529,649],[1839.949999935925,529,649],[1847.330000018701,529,649],[1860.2950000204146,526,660],[1884.1099999845028,526,660],[1894.804999930784,526,660],[1910.1099998224527,537,686],[1937.7749999985099,537,686],[1945.1699999626726,537,686],[1960.8899999875575,513,684],[1985.8599998988211,513,684],[1999.294999986887,494,658]]",0,1,1,2,1,-0.3,-0.3,jig,001,2021-03-16_17h05.03.329,TestWebGazer,2021.1.2,MacIntel,60.0024001,,,,,,,
,,,,,,,,,,,,"[[0.029999995604157448,494,658],[21.500000031664968,494,658],[33.3600000012666,530,622],[53.50999999791384,530,622],[62.33999994583428,530,622],[77.92499987408519,513,636],[105.04000005312264,513,636],[113.12999995425344,513,636],[126.94499990902841,532,632],[149.26499989815056,532,632],[168.43999992124736,491,674],[191.42499985173345,491,674],[201.69500005431473,491,674],[216.4399998728186,491,691],[238.75500005669892,491,691],[247.6899998728186,491,691],[260.47999993897974,491,675],[282.8349999617785,491,675],[301.90499988384545,524,641],[323.6350000370294,524,641],[334.65999993495643,524,641],[348.31000003032386,452,662],[371.4949998538941,452,662],[384.95999993756413,820,697],[405.6450000498444,820,697],[414.39499985426664,820,697],[427.17000003904104,895,658],[449.5149999856949,895,658],[465.6849999446422,967,573],[486.2349999602884,967,573],[498.7699999473989,896,654],[518.3550000656396,896,654],[533.0699998885393,947,627],[555.8100000489503,947,627],[567.1250000596046,1013,680],[587.4449999537319,1013,680],[595.5149999354035,1013,680],[610.5799998622388,952,662],[637.4049999285489,952,662],[644.8500000406057,952,662],[661.6849999409169,912,676],[683.6349999066442,912,676],[694.5100000593811,912,676],[711.4399999845773,958,674],[737.8149998839945,958,674],[745.0550000648946,958,674],[761.8799998890609,972,647],[785.6250000186265,972,647],[801.1350000742823,985,636],[822.4349999800324,985,636],[829.9050000496209,985,636],[844.1749999765307,970,672],[869.7349999565631,970,672],[882.85499997437,965,623],[905.0350000616163,965,623],[917.0500000473112,958,653],[937.2900000307709,958,653],[945.3050000593066,958,653],[960.9850000124425,1022,676],[983.6049999576062,1022,676],[993.684999877587,1022,676],[1010.7650000136346,974,696],[1035.2249999996275,974,696],[1044.88499998115,974,696],[1059.8750000353903,983,634],[1081.074999878183,983,634],[1100.489999866113,952,575],[1121.5800000354648,952,575],[1130.2900000009686,952,575],[1144.154999870807,936,640],[1169.539999915287,936,640],[1178.2499998807907,936,640],[1194.2549999803305,932,578],[1217.5399998668581,932,578],[1228.31999999471,932,578],[1244.0150000620633,940,602],[1270.215000025928,940,602],[1283.6150000803173,893,602],[1305.4849999025464,893,602],[1319.1150000784546,912,605],[1344.9899998959154,912,605],[1361.3599999807775,958,547],[1383.6300000548363,958,547],[1395.0249999761581,958,547],[1410.2399998810142,953,558],[1434.8249998874962,953,558],[1445.52499987185,953,558],[1460.6500000227243,936,595],[1483.7599999736995,936,595],[1499.644999857992,924,612],[1518.930000020191,924,612],[1528.3399999607354,924,612],[1543.7149999197572,940,595],[1569.249999942258,940,595],[1578.2599998638034,940,595],[1593.8649999443442,922,600],[1615.4000000096858,922,600],[1626.5449998900294,922,600],[1644.154999870807,924,609],[1669.5499999914318,924,609],[1682.954999851063,908,587],[1705.335000064224,908,587],[1713.1950000766665,908,587],[1729.4099999126047,913,569],[1749.9949999619275,913,569],[1760.7050000224262,913,569],[1776.3749998994172,912,577],[1801.02499993518,912,577],[1812.9050000570714,912,577],[1826.725000049919,925,613],[1849.2300000507385,925,613],[1868.1000000797212,895,630],[1889.7450000513345,895,630],[1898.4850000124425,895,630],[1910.2350000757724,902,626],[1932.7100000809878,902,626],[1950.4899999592453,914,665],[1975.3000000491738,914,665],[1987.5749999191612,896,683]]",0,2,2,4,1,0.3,-0.3,jig,001,2021-03-16_17h05.03.329,TestWebGazer,2021.1.2,MacIntel,60.0024001,,,,,,,
